"","condition","block_no","trial_no","trial_type","rt","closeness","id","emotion_rating","closeness","pos_PNR"
"8","control","block 1",1,"1",2434,86,"md_as_12",1.21097512529845,-0.199838701028609,0.177211522409184
"15","control","block 1",2,"2",2818,69,"md_as_12",0.535020385529525,-0.028153236776841,0.177211522409184
"22","control","block 1",3,"1",3597,68,"md_as_12",0.495258342013705,0.0147681292861011,0.177211522409184
"29","control","block 1",4,"2",2553,62,"md_as_12",0.256686080918789,-0.113995968902725,0.177211522409184
"36","control","block 1",5,"1",1831,55,"md_as_12",-0.0216482236919461,0.0576894953490432,0.177211522409184
"43","control","block 1",6,"2",1957,72,"md_as_12",0.654306516076983,-0.028153236776841,0.177211522409184
"50","control","block 1",7,"1",2438,65,"md_as_12",0.375972211466247,-0.071074602839783,0.177211522409184
"57","control","block 1",8,"2",1654,66,"md_as_12",0.415734254982067,0.143532227474927,0.177211522409184
"64","control","block 1",9,"1",3306,65,"md_as_12",0.375972211466247,-0.113995968902725,0.177211522409184
"71","control","block 1",10,"2",2289,62,"md_as_12",0.256686080918789,-0.028153236776841,0.177211522409184
"78","control","block 1",11,"1",2109,80,"md_as_12",0.972402864203538,0.100610861411985,0.177211522409184
"85","control","block 1",12,"1",1936,73,"md_as_12",0.694068559592802,0.0147681292861011,0.177211522409184
"92","control","block 1",13,"2",1482,73,"md_as_12",0.694068559592802,-0.028153236776841,0.177211522409184
"99","control","block 1",14,"2",2511,57,"md_as_12",0.0578758633396926,-0.242760067091551,0.177211522409184
"106","control","block 1",15,"1",1418,55,"md_as_12",-0.0216482236919461,-0.41444553134332,0.177211522409184
"113","control","block 1",16,"2",2116,77,"md_as_12",0.85311673365608,0.272296325663754,0.177211522409184
"120","control","block 1",17,"1",2939,77,"md_as_12",0.85311673365608,0.0147681292861011,0.177211522409184
"127","control","block 1",18,"1",2106,72,"md_as_12",0.654306516076983,0.0147681292861011,0.177211522409184
"134","control","block 1",19,"2",2004,75,"md_as_12",0.773592646624441,0.358139057789638,0.177211522409184
"141","control","block 1",20,"2",2552,75,"md_as_12",0.773592646624441,0.61566725416729,0.177211522409184
"148","control","block 1",21,"1",3141,82,"md_as_12",1.05192695123518,-0.113995968902725,0.177211522409184
"155","control","block 1",22,"2",1470,77,"md_as_12",0.85311673365608,-0.028153236776841,0.177211522409184
"162","control","block 1",23,"1",1941,76,"md_as_12",0.81335469014026,0.0576894953490432,0.177211522409184
"169","control","block 1",24,"2",2933,85,"md_as_12",1.17121308178263,0.0576894953490432,0.177211522409184
"176","control","block 1",25,"2",3696,87,"md_as_12",1.25073716881427,-1.91669334354629,0.177211522409184
"184","control","block 2",1,"1",1769,61,"md_as_12",0.21692403740297,0.358139057789638,0.177211522409184
"191","control","block 2",2,"2",1777,71,"md_as_12",0.614544472561164,0.0147681292861011,0.177211522409184
"198","control","block 2",3,"1",3341,78,"md_as_12",0.892878777171899,0.100610861411985,0.177211522409184
"205","control","block 2",4,"2",1803,64,"md_as_12",0.336210167950428,-0.371524165280378,0.177211522409184
"212","control","block 2",5,"1",1819,70,"md_as_12",0.574782429045344,-0.113995968902725,0.177211522409184
"219","control","block 2",6,"2",2773,73,"md_as_12",0.694068559592802,-0.113995968902725,0.177211522409184
"226","control","block 2",7,"1",3528,83,"md_as_12",1.091688994751,-0.113995968902725,0.177211522409184
"233","control","block 2",8,"2",3143,73,"md_as_12",0.694068559592802,-0.199838701028609,0.177211522409184
"240","control","block 2",9,"1",2734,73,"md_as_12",0.694068559592802,-0.285681433154493,0.177211522409184
"247","control","block 2",10,"2",2659,79,"md_as_12",0.932640820687718,-0.071074602839783,0.177211522409184
"254","control","block 2",11,"1",2161,80,"md_as_12",0.972402864203538,-0.242760067091551,0.177211522409184
"261","control","block 2",12,"1",1398,68,"md_as_12",0.495258342013705,-0.242760067091551,0.177211522409184
"268","control","block 2",13,"1",1549,69,"md_as_12",0.535020385529525,-0.62905236165803,0.177211522409184
"275","control","block 2",14,"2",2657,73,"md_as_12",0.694068559592802,-0.156917334965667,0.177211522409184
"282","control","block 2",15,"1",3280,78,"md_as_12",0.892878777171899,-0.371524165280378,0.177211522409184
"289","control","block 2",16,"2",1397,78,"md_as_12",0.892878777171899,0.143532227474927,0.177211522409184
"296","control","block 2",17,"1",1304,69,"md_as_12",0.535020385529525,-0.113995968902725,0.177211522409184
"303","control","block 2",18,"1",2192,79,"md_as_12",0.932640820687718,-0.028153236776841,0.177211522409184
"310","control","block 2",19,"2",2189,70,"md_as_12",0.574782429045344,0.143532227474927,0.177211522409184
"317","control","block 2",20,"2",1677,71,"md_as_12",0.614544472561164,-0.071074602839783,0.177211522409184
"324","control","block 2",21,"1",3396,80,"md_as_12",0.972402864203538,-0.242760067091551,0.177211522409184
"331","control","block 2",22,"2",3342,81,"md_as_12",1.01216490771936,-0.586130995595088,0.177211522409184
"338","control","block 2",23,"1",1214,68,"md_as_12",0.495258342013705,-0.543209629532146,0.177211522409184
"345","control","block 2",24,"2",1353,80,"md_as_12",0.972402864203538,0.272296325663754,0.177211522409184
"352","control","block 2",25,"2",1190,70,"md_as_12",0.574782429045344,-0.242760067091551,0.177211522409184
"360","treatment","block 1",1,"1",3824,89,"md_as_12",1.33026125584591,0.0147681292861011,0.177211522409184
"367","treatment","block 1",2,"2",1947,87,"md_as_12",1.25073716881427,-0.071074602839783,0.177211522409184
"374","treatment","block 1",3,"1",1691,70,"md_as_12",0.574782429045344,-0.285681433154493,0.177211522409184
"381","treatment","block 1",4,"1",1251,86,"md_as_12",1.21097512529845,-0.113995968902725,0.177211522409184
"388","treatment","block 1",5,"1",1849,79,"md_as_12",0.932640820687718,-0.113995968902725,0.177211522409184
"395","treatment","block 1",6,"1",2330,68,"md_as_12",0.495258342013705,-0.285681433154493,0.177211522409184
"402","treatment","block 1",7,"1",1578,91,"md_as_12",1.40978534287755,-0.071074602839783,0.177211522409184
"409","treatment","block 1",8,"1",2167,78,"md_as_12",0.892878777171899,-0.113995968902725,0.177211522409184
"416","treatment","block 1",9,"2",3029,56,"md_as_12",0.0181138198238733,0.186453593537869,0.177211522409184
"423","treatment","block 1",10,"1",3393,70,"md_as_12",0.574782429045344,-0.028153236776841,0.177211522409184
"430","treatment","block 1",11,"2",2488,61,"md_as_12",0.21692403740297,-0.242760067091551,0.177211522409184
"437","treatment","block 1",12,"1",3278,74,"md_as_12",0.733830603108622,0.0147681292861011,0.177211522409184
"444","treatment","block 1",13,"1",2992,79,"md_as_12",0.932640820687718,-0.199838701028609,0.177211522409184
"451","treatment","block 1",14,"1",2300,75,"md_as_12",0.773592646624441,-0.113995968902725,0.177211522409184
"458","treatment","block 1",15,"1",3179,45,"md_as_12",-0.41926865885014,-0.156917334965667,0.177211522409184
"465","treatment","block 1",16,"1",3000,67,"md_as_12",0.455496298497886,-0.242760067091551,0.177211522409184
"472","treatment","block 1",17,"2",1048,61,"md_as_12",0.21692403740297,-0.113995968902725,0.177211522409184
"479","treatment","block 1",18,"1",2023,68,"md_as_12",0.495258342013705,-0.41444553134332,0.177211522409184
"486","treatment","block 1",19,"1",821,80,"md_as_12",0.972402864203538,-0.113995968902725,0.177211522409184
"493","treatment","block 1",20,"1",2810,65,"md_as_12",0.375972211466247,-0.071074602839783,0.177211522409184
"500","treatment","block 1",21,"2",3174,74,"md_as_12",0.733830603108622,-0.242760067091551,0.177211522409184
"507","treatment","block 1",22,"1",2024,70,"md_as_12",0.574782429045344,-0.285681433154493,0.177211522409184
"514","treatment","block 1",23,"1",2704,77,"md_as_12",0.85311673365608,-0.371524165280378,0.177211522409184
"521","treatment","block 1",24,"1",2142,81,"md_as_12",1.01216490771936,-0.071074602839783,0.177211522409184
"528","treatment","block 1",25,"1",2461,60,"md_as_12",0.177161993887151,-0.757816459846856,0.177211522409184
"536","treatment","block 2",1,"2",2270,61,"md_as_12",0.21692403740297,-0.371524165280378,0.177211522409184
"543","treatment","block 2",2,"1",1516,84,"md_as_12",1.13145103826682,-0.328602799217435,0.177211522409184
"550","treatment","block 2",3,"2",1730,64,"md_as_12",0.336210167950428,0.100610861411985,0.177211522409184
"557","treatment","block 2",4,"2",3766,60,"md_as_12",0.177161993887151,-0.62905236165803,0.177211522409184
"564","treatment","block 2",5,"2",1817,65,"md_as_12",0.375972211466247,-0.328602799217435,0.177211522409184
"571","treatment","block 2",6,"2",2007,63,"md_as_12",0.296448124434609,-0.113995968902725,0.177211522409184
"578","treatment","block 2",7,"2",1311,57,"md_as_12",0.0578758633396926,-0.071074602839783,0.177211522409184
"585","treatment","block 2",8,"2",2136,59,"md_as_12",0.137399950371331,0.0576894953490432,0.177211522409184
"592","treatment","block 2",9,"1",1424,81,"md_as_12",1.01216490771936,-0.242760067091551,0.177211522409184
"599","treatment","block 2",10,"2",1455,62,"md_as_12",0.256686080918789,-0.543209629532146,0.177211522409184
"606","treatment","block 2",11,"1",1771,64,"md_as_12",0.336210167950428,-0.199838701028609,0.177211522409184
"613","treatment","block 2",12,"2",2152,56,"md_as_12",0.0181138198238733,-0.028153236776841,0.177211522409184
"620","treatment","block 2",13,"2",1565,58,"md_as_12",0.097637906855512,-0.199838701028609,0.177211522409184
"627","treatment","block 2",14,"2",1925,63,"md_as_12",0.296448124434609,-0.500288263469204,0.177211522409184
"634","treatment","block 2",15,"2",2855,60,"md_as_12",0.177161993887151,-0.285681433154493,0.177211522409184
"641","treatment","block 2",16,"2",2047,62,"md_as_12",0.256686080918789,-0.199838701028609,0.177211522409184
"648","treatment","block 2",17,"1",2753,74,"md_as_12",0.733830603108622,-0.199838701028609,0.177211522409184
"655","treatment","block 2",18,"2",3187,54,"md_as_12",-0.0614102672077654,-0.457366897406262,0.177211522409184
"662","treatment","block 2",19,"2",1496,51,"md_as_12",-0.180696397755224,-0.156917334965667,0.177211522409184
"669","treatment","block 2",20,"2",1698,60,"md_as_12",0.177161993887151,-0.586130995595088,0.177211522409184
"676","treatment","block 2",21,"1",2239,70,"md_as_12",0.574782429045344,0.0576894953490432,0.177211522409184
"683","treatment","block 2",22,"2",3127,76,"md_as_12",0.81335469014026,-0.800737825909798,0.177211522409184
"690","treatment","block 2",23,"2",1894,56,"md_as_12",0.0181138198238733,-0.84365919197274,0.177211522409184
"697","treatment","block 2",24,"2",1514,45,"md_as_12",-0.41926865885014,0.186453593537869,0.177211522409184
"704","treatment","block 2",25,"2",3353,52,"md_as_12",-0.140934354239404,-0.371524165280378,0.177211522409184
"712","treatment","block 1",1,"1",3852,61,"md_as_13",0.21692403740297,-0.41444553134332,-0.374870528173274
"719","treatment","block 1",2,"2",3475,43,"md_as_13",-0.498792745881778,0.100610861411985,-0.374870528173274
"726","treatment","block 1",3,"1",4404,63,"md_as_13",0.296448124434609,-0.242760067091551,-0.374870528173274
"733","treatment","block 1",4,"1",2495,83,"md_as_13",1.091688994751,0.701509986293174,-0.374870528173274
"740","treatment","block 1",5,"1",4800,51,"md_as_13",-0.180696397755224,0.486903155978464,-0.374870528173274
"747","treatment","block 1",6,"1",1982,68,"md_as_13",0.495258342013705,0.229374959600811,-0.374870528173274
"754","treatment","block 1",7,"1",3736,61,"md_as_13",0.21692403740297,0.572745888104348,-0.374870528173274
"761","treatment","block 1",8,"1",3867,58,"md_as_13",0.097637906855512,0.658588620230232,-0.374870528173274
"768","treatment","block 1",9,"2",3960,37,"md_as_13",-0.737365006976694,0.529824522041406,-0.374870528173274
"775","treatment","block 1",10,"1",5110,58,"md_as_13",0.097637906855512,-0.543209629532146,-0.374870528173274
"782","treatment","block 1",11,"2",2942,37,"md_as_13",-0.737365006976694,-0.285681433154493,-0.374870528173274
"789","treatment","block 1",12,"1",3804,77,"md_as_13",0.85311673365608,-0.156917334965667,-0.374870528173274
"796","treatment","block 1",13,"1",4272,56,"md_as_13",0.0181138198238733,0.100610861411985,-0.374870528173274
"803","treatment","block 1",14,"1",2640,76,"md_as_13",0.81335469014026,0.0147681292861011,-0.374870528173274
"810","treatment","block 1",15,"1",4112,72,"md_as_13",0.654306516076983,0.959038182670827,-0.374870528173274
"817","treatment","block 1",16,"1",2969,65,"md_as_13",0.375972211466247,0.873195450544942,-0.374870528173274
"824","treatment","block 1",17,"2",2649,57,"md_as_13",0.0578758633396926,0.916116816607885,-0.374870528173274
"831","treatment","block 1",18,"1",3330,61,"md_as_13",0.21692403740297,-0.328602799217435,-0.374870528173274
"838","treatment","block 1",19,"1",2157,82,"md_as_13",1.05192695123518,0.529824522041406,-0.374870528173274
"845","treatment","block 1",20,"1",3828,73,"md_as_13",0.694068559592802,0.701509986293174,-0.374870528173274
"852","treatment","block 1",21,"2",2720,38,"md_as_13",-0.697602963460875,1.00195954873377,-0.374870528173274
"859","treatment","block 1",22,"1",1990,39,"md_as_13",-0.657840919945056,-0.071074602839783,-0.374870528173274
"866","treatment","block 1",23,"1",3017,67,"md_as_13",0.455496298497886,0.0576894953490432,-0.374870528173274
"873","treatment","block 1",24,"1",3712,74,"md_as_13",0.733830603108622,0.658588620230232,-0.374870528173274
"880","treatment","block 1",25,"1",2242,80,"md_as_13",0.972402864203538,0.486903155978464,-0.374870528173274
"888","treatment","block 2",1,"2",3362,42,"md_as_13",-0.538554789397598,0.358139057789638,-0.374870528173274
"895","treatment","block 2",2,"1",3400,54,"md_as_13",-0.0614102672077654,0.315217691726696,-0.374870528173274
"902","treatment","block 2",3,"2",2756,31,"md_as_13",-0.975937268071611,0.658588620230232,-0.374870528173274
"909","treatment","block 2",4,"2",4414,35,"md_as_13",-0.816889094008333,0.40106042385258,-0.374870528173274
"916","treatment","block 2",5,"2",5526,27,"md_as_13",-1.13498544213489,-0.028153236776841,-0.374870528173274
"923","treatment","block 2",6,"2",3992,27,"md_as_13",-1.13498544213489,-0.62905236165803,-0.374870528173274
"930","treatment","block 2",7,"2",3423,23,"md_as_13",-1.29403361619817,-0.671973727720972,-0.374870528173274
"937","treatment","block 2",8,"2",2539,26,"md_as_13",-1.17474748565071,-0.62905236165803,-0.374870528173274
"944","treatment","block 2",9,"1",3509,29,"md_as_13",-1.05546135510325,-0.84365919197274,-0.374870528173274
"951","treatment","block 2",10,"2",4024,24,"md_as_13",-1.25427157268235,-1.6162437811057,-0.374870528173274
"958","treatment","block 2",11,"1",2945,37,"md_as_13",-0.737365006976694,-0.929501924098624,-0.374870528173274
"965","treatment","block 2",12,"2",2235,14,"md_as_13",-1.65189200784054,-0.714895093783914,-0.374870528173274
"972","treatment","block 2",13,"2",3344,22,"md_as_13",-1.33379565971398,-1.01534465622451,-0.374870528173274
"979","treatment","block 2",14,"2",5006,20,"md_as_13",-1.41331974674562,-1.22995148653922,-0.374870528173274
"986","treatment","block 2",15,"2",4005,24,"md_as_13",-1.25427157268235,-1.53040104897981,-0.374870528173274
"993","treatment","block 2",16,"2",3325,20,"md_as_13",-1.41331974674562,-0.929501924098624,-0.374870528173274
"1000","treatment","block 2",17,"1",3652,31,"md_as_13",-0.975937268071611,-1.18703012047628,-0.374870528173274
"1007","treatment","block 2",18,"2",3872,27,"md_as_13",-1.13498544213489,-0.84365919197274,-0.374870528173274
"1014","treatment","block 2",19,"2",1738,25,"md_as_13",-1.21450952916653,-0.714895093783914,-0.374870528173274
"1021","treatment","block 2",20,"2",3663,27,"md_as_13",-1.13498544213489,-0.757816459846856,-0.374870528173274
"1028","treatment","block 2",21,"1",2821,29,"md_as_13",-1.05546135510325,-0.972423290161566,-0.374870528173274
"1035","treatment","block 2",22,"2",2666,23,"md_as_13",-1.29403361619817,-1.05826602228745,-0.374870528173274
"1042","treatment","block 2",23,"2",4316,27,"md_as_13",-1.13498544213489,-1.01534465622451,-0.374870528173274
"1049","treatment","block 2",24,"2",3236,21,"md_as_13",-1.3735577032298,-1.3157942186651,-0.374870528173274
"1056","treatment","block 2",25,"2",3931,22,"md_as_13",-1.33379565971398,-1.01534465622451,-0.374870528173274
"1064","control","block 1",1,"1",3012,78,"md_as_13",0.892878777171899,-0.84365919197274,-0.374870528173274
"1071","control","block 1",2,"2",3025,32,"md_as_13",-0.936175224555791,-0.028153236776841,-0.374870528173274
"1078","control","block 1",3,"1",4235,68,"md_as_13",0.495258342013705,-0.586130995595088,-0.374870528173274
"1085","control","block 1",4,"2",2776,35,"md_as_13",-0.816889094008333,-0.41444553134332,-0.374870528173274
"1092","control","block 1",5,"1",3448,36,"md_as_13",-0.777127050492514,-0.285681433154493,-0.374870528173274
"1099","control","block 1",6,"2",3890,41,"md_as_13",-0.578316832913417,-0.371524165280378,-0.374870528173274
"1106","control","block 1",7,"1",4694,45,"md_as_13",-0.41926865885014,-0.500288263469204,-0.374870528173274
"1113","control","block 1",8,"2",3882,32,"md_as_13",-0.936175224555791,-0.113995968902725,-0.374870528173274
"1120","control","block 1",9,"1",2266,53,"md_as_13",-0.101172310723585,-0.972423290161566,-0.374870528173274
"1127","control","block 1",10,"2",5396,37,"md_as_13",-0.737365006976694,-0.543209629532146,-0.374870528173274
"1134","control","block 1",11,"1",2987,64,"md_as_13",0.336210167950428,-1.35871558472804,-0.374870528173274
"1141","control","block 1",12,"1",3190,60,"md_as_13",0.177161993887151,-0.071074602839783,-0.374870528173274
"1148","control","block 1",13,"2",3828,48,"md_as_13",-0.299982528302682,-0.457366897406262,-0.374870528173274
"1155","control","block 1",14,"2",3695,48,"md_as_13",-0.299982528302682,-0.328602799217435,-0.374870528173274
"1162","control","block 1",15,"1",5962,47,"md_as_13",-0.339744571818501,-0.113995968902725,-0.374870528173274
"1169","control","block 1",16,"2",3561,40,"md_as_13",-0.618078876429236,-0.328602799217435,-0.374870528173274
"1176","control","block 1",17,"1",3389,52,"md_as_13",-0.140934354239404,-0.714895093783914,-0.374870528173274
"1183","control","block 1",18,"1",3968,68,"md_as_13",0.495258342013705,-0.929501924098624,-0.374870528173274
"1190","control","block 1",19,"2",2938,25,"md_as_13",-1.21450952916653,-0.41444553134332,-0.374870528173274
"1197","control","block 1",20,"2",4920,33,"md_as_13",-0.896413181039972,-0.886580558035682,-0.374870528173274
"1204","control","block 1",21,"1",2485,51,"md_as_13",-0.180696397755224,-0.886580558035682,-0.374870528173274
"1211","control","block 1",22,"2",2020,23,"md_as_13",-1.29403361619817,-0.113995968902725,-0.374870528173274
"1218","control","block 1",23,"1",2607,34,"md_as_13",-0.856651137524152,-0.457366897406262,-0.374870528173274
"1225","control","block 1",24,"2",1964,15,"md_as_13",-1.61212996432472,-0.500288263469204,-0.374870528173274
"1232","control","block 1",25,"2",4430,16,"md_as_13",-1.5723679208089,-1.35871558472804,-0.374870528173274
"1240","control","block 2",1,"1",5052,64,"md_as_13",0.336210167950428,-0.071074602839783,-0.374870528173274
"1247","control","block 2",2,"2",3496,55,"md_as_13",-0.0216482236919461,0.186453593537869,-0.374870528173274
"1254","control","block 2",3,"1",4548,59,"md_as_13",0.137399950371331,-0.071074602839783,-0.374870528173274
"1261","control","block 2",4,"2",4054,44,"md_as_13",-0.459030702365959,-0.071074602839783,-0.374870528173274
"1268","control","block 2",5,"1",3328,57,"md_as_13",0.0578758633396926,-0.199838701028609,-0.374870528173274
"1275","control","block 2",6,"2",3347,46,"md_as_13",-0.37950661533432,0.0147681292861011,-0.374870528173274
"1282","control","block 2",7,"1",2065,67,"md_as_13",0.455496298497886,-0.156917334965667,-0.374870528173274
"1289","control","block 2",8,"2",4425,44,"md_as_13",-0.459030702365959,0.229374959600811,-0.374870528173274
"1296","control","block 2",9,"1",3548,47,"md_as_13",-0.339744571818501,-0.285681433154493,-0.374870528173274
"1303","control","block 2",10,"2",3799,49,"md_as_13",-0.260220484786862,0.186453593537869,-0.374870528173274
"1310","control","block 2",11,"1",3741,51,"md_as_13",-0.180696397755224,-0.371524165280378,-0.374870528173274
"1317","control","block 2",12,"1",3325,59,"md_as_13",0.137399950371331,-0.242760067091551,-0.374870528173274
"1324","control","block 2",13,"1",4719,66,"md_as_13",0.415734254982067,-0.028153236776841,-0.374870528173274
"1331","control","block 2",14,"2",3362,41,"md_as_13",-0.578316832913417,0.40106042385258,-0.374870528173274
"1338","control","block 2",15,"1",2866,63,"md_as_13",0.296448124434609,0.0147681292861011,-0.374870528173274
"1345","control","block 2",16,"2",3347,43,"md_as_13",-0.498792745881778,0.529824522041406,-0.374870528173274
"1352","control","block 2",17,"1",3885,52,"md_as_13",-0.140934354239404,0.486903155978464,-0.374870528173274
"1359","control","block 2",18,"1",2717,66,"md_as_13",0.415734254982067,0.61566725416729,-0.374870528173274
"1366","control","block 2",19,"2",4174,37,"md_as_13",-0.737365006976694,0.744431352356116,-0.374870528173274
"1373","control","block 2",20,"2",2623,21,"md_as_13",-1.3735577032298,0.486903155978464,-0.374870528173274
"1380","control","block 2",21,"1",6002,41,"md_as_13",-0.578316832913417,0.100610861411985,-0.374870528173274
"1387","control","block 2",22,"2",1441,21,"md_as_13",-1.3735577032298,0.186453593537869,-0.374870528173274
"1394","control","block 2",23,"1",3482,54,"md_as_13",-0.0614102672077654,-0.156917334965667,-0.374870528173274
"1401","control","block 2",24,"2",2089,37,"md_as_13",-0.737365006976694,0.529824522041406,-0.374870528173274
"1408","control","block 2",25,"2",3041,34,"md_as_13",-0.856651137524152,0.0147681292861011,-0.374870528173274
"1416","treatment","block 1",1,"1",2866,79,"md_as_14",0.932640820687718,-1.05826602228745,0.913320923185796
"1423","treatment","block 1",2,"2",4304,74,"md_as_14",0.733830603108622,-0.757816459846856,0.913320923185796
"1430","treatment","block 1",3,"1",1674,90,"md_as_14",1.37002329936173,-1.10118738835039,0.913320923185796
"1437","treatment","block 1",4,"1",3625,96,"md_as_14",1.60859556045665,-0.886580558035682,0.913320923185796
"1444","treatment","block 1",5,"1",4588,82,"md_as_14",1.05192695123518,-0.62905236165803,0.913320923185796
"1451","treatment","block 1",6,"1",4542,90,"md_as_14",1.37002329936173,-0.328602799217435,0.913320923185796
"1458","treatment","block 1",7,"1",4330,84,"md_as_14",1.13145103826682,0.0147681292861011,0.913320923185796
"1465","treatment","block 1",8,"1",2933,82,"md_as_14",1.05192695123518,-0.113995968902725,0.913320923185796
"1472","treatment","block 1",9,"2",2469,78,"md_as_14",0.892878777171899,-0.156917334965667,0.913320923185796
"1479","treatment","block 1",10,"1",2177,90,"md_as_14",1.37002329936173,-0.328602799217435,0.913320923185796
"1486","treatment","block 1",11,"2",5038,70,"md_as_14",0.574782429045344,-0.457366897406262,0.913320923185796
"1493","treatment","block 1",12,"1",4337,66,"md_as_14",0.415734254982067,0.315217691726696,0.913320923185796
"1500","treatment","block 1",13,"1",5020,88,"md_as_14",1.29049921233009,0.186453593537869,0.913320923185796
"1507","treatment","block 1",14,"1",1824,81,"md_as_14",1.01216490771936,0.358139057789638,0.913320923185796
"1514","treatment","block 1",15,"1",3510,77,"md_as_14",0.85311673365608,0.0147681292861011,0.913320923185796
"1521","treatment","block 1",16,"1",3228,79,"md_as_14",0.932640820687718,-0.071074602839783,0.913320923185796
"1528","treatment","block 1",17,"2",3217,94,"md_as_14",1.52907147342501,0.143532227474927,0.913320923185796
"1535","treatment","block 1",18,"1",3562,72,"md_as_14",0.654306516076983,-1.3157942186651,0.913320923185796
"1542","treatment","block 1",19,"1",2545,78,"md_as_14",0.892878777171899,-0.757816459846856,0.913320923185796
"1549","treatment","block 1",20,"1",2910,86,"md_as_14",1.21097512529845,0.0576894953490432,0.913320923185796
"1556","treatment","block 1",21,"2",2341,80,"md_as_14",0.972402864203538,0.229374959600811,0.913320923185796
"1563","treatment","block 1",22,"1",2503,84,"md_as_14",1.13145103826682,0.229374959600811,0.913320923185796
"1570","treatment","block 1",23,"1",1517,91,"md_as_14",1.40978534287755,0.143532227474927,0.913320923185796
"1577","treatment","block 1",24,"1",3000,90,"md_as_14",1.37002329936173,0.100610861411985,0.913320923185796
"1584","treatment","block 1",25,"1",1263,82,"md_as_14",1.05192695123518,0.186453593537869,0.913320923185796
"1592","treatment","block 2",1,"2",1248,80,"md_as_14",0.972402864203538,-0.328602799217435,0.913320923185796
"1599","treatment","block 2",2,"1",2463,75,"md_as_14",0.773592646624441,-1.22995148653922,0.913320923185796
"1606","treatment","block 2",3,"2",3964,93,"md_as_14",1.48930942990919,-0.242760067091551,0.913320923185796
"1613","treatment","block 2",4,"2",3098,73,"md_as_14",0.694068559592802,-0.285681433154493,0.913320923185796
"1620","treatment","block 2",5,"2",2343,87,"md_as_14",1.25073716881427,-1.6162437811057,0.913320923185796
"1627","treatment","block 2",6,"2",1819,68,"md_as_14",0.495258342013705,-1.83085061142041,0.913320923185796
"1634","treatment","block 2",7,"2",3381,53,"md_as_14",-0.101172310723585,-2.04545744173512,0.913320923185796
"1641","treatment","block 2",8,"2",1834,71,"md_as_14",0.614544472561164,-2.04545744173512,0.913320923185796
"1648","treatment","block 2",9,"1",2952,55,"md_as_14",-0.0216482236919461,-2.04545744173512,0.913320923185796
"1655","treatment","block 2",10,"2",3633,53,"md_as_14",-0.101172310723585,-2.04545744173512,0.913320923185796
"1662","treatment","block 2",11,"1",2623,52,"md_as_14",-0.140934354239404,-2.04545744173512,0.913320923185796
"1669","treatment","block 2",12,"2",2892,64,"md_as_14",0.336210167950428,-2.04545744173512,0.913320923185796
"1676","treatment","block 2",13,"2",2107,69,"md_as_14",0.535020385529525,-2.04545744173512,0.913320923185796
"1683","treatment","block 2",14,"2",1614,58,"md_as_14",0.097637906855512,-2.04545744173512,0.913320923185796
"1690","treatment","block 2",15,"2",3419,62,"md_as_14",0.256686080918789,-2.04545744173512,0.913320923185796
"1697","treatment","block 2",16,"2",3869,69,"md_as_14",0.535020385529525,-2.04545744173512,0.913320923185796
"1704","treatment","block 2",17,"1",1340,64,"md_as_14",0.336210167950428,-2.04545744173512,0.913320923185796
"1711","treatment","block 2",18,"2",2658,58,"md_as_14",0.097637906855512,-2.04545744173512,0.913320923185796
"1718","treatment","block 2",19,"2",1675,54,"md_as_14",-0.0614102672077654,-2.04545744173512,0.913320923185796
"1725","treatment","block 2",20,"2",2506,46,"md_as_14",-0.37950661533432,-2.04545744173512,0.913320923185796
"1732","treatment","block 2",21,"1",2852,58,"md_as_14",0.097637906855512,-2.04545744173512,0.913320923185796
"1739","treatment","block 2",22,"2",1997,65,"md_as_14",0.375972211466247,-1.78792924535747,0.913320923185796
"1746","treatment","block 2",23,"2",1854,60,"md_as_14",0.177161993887151,-2.04545744173512,0.913320923185796
"1753","treatment","block 2",24,"2",2791,55,"md_as_14",-0.0216482236919461,-2.04545744173512,0.913320923185796
"1760","treatment","block 2",25,"2",2176,65,"md_as_14",0.375972211466247,-2.04545744173512,0.913320923185796
"1768","control","block 1",1,"1",3207,75,"md_as_14",0.773592646624441,-1.40163695079099,0.913320923185796
"1775","control","block 1",2,"2",3136,51,"md_as_14",-0.180696397755224,-0.671973727720972,0.913320923185796
"1782","control","block 1",3,"1",1624,80,"md_as_14",0.972402864203538,-1.87377197748335,0.913320923185796
"1789","control","block 1",4,"2",1113,66,"md_as_14",0.415734254982067,-1.44455831685393,0.913320923185796
"1796","control","block 1",5,"1",1787,61,"md_as_14",0.21692403740297,-1.53040104897981,0.913320923185796
"1803","control","block 1",6,"2",3915,61,"md_as_14",0.21692403740297,-1.44455831685393,0.913320923185796
"1810","control","block 1",7,"1",2707,58,"md_as_14",0.097637906855512,-1.35871558472804,0.913320923185796
"1817","control","block 1",8,"2",2525,71,"md_as_14",0.614544472561164,-1.57332241504276,0.913320923185796
"1824","control","block 1",9,"1",2847,68,"md_as_14",0.495258342013705,-1.05826602228745,0.913320923185796
"1831","control","block 1",10,"2",2035,77,"md_as_14",0.85311673365608,-1.18703012047628,0.913320923185796
"1838","control","block 1",11,"1",3608,80,"md_as_14",0.972402864203538,-2.04545744173512,0.913320923185796
"1845","control","block 1",12,"1",2534,67,"md_as_14",0.455496298497886,-1.22995148653922,0.913320923185796
"1852","control","block 1",13,"2",1743,65,"md_as_14",0.375972211466247,-1.40163695079099,0.913320923185796
"1859","control","block 1",14,"2",3970,53,"md_as_14",-0.101172310723585,-1.57332241504276,0.913320923185796
"1866","control","block 1",15,"1",1978,67,"md_as_14",0.455496298497886,-1.53040104897981,0.913320923185796
"1873","control","block 1",16,"2",3716,60,"md_as_14",0.177161993887151,-0.800737825909798,0.913320923185796
"1880","control","block 1",17,"1",3012,75,"md_as_14",0.773592646624441,-1.65916514716864,0.913320923185796
"1887","control","block 1",18,"1",3887,63,"md_as_14",0.296448124434609,-1.10118738835039,0.913320923185796
"1894","control","block 1",19,"2",3220,66,"md_as_14",0.415734254982067,-1.05826602228745,0.913320923185796
"1901","control","block 1",20,"2",3897,50,"md_as_14",-0.220458441271043,-1.18703012047628,0.913320923185796
"1908","control","block 1",21,"1",1895,90,"md_as_14",1.37002329936173,-1.78792924535747,0.913320923185796
"1915","control","block 1",22,"2",4478,51,"md_as_14",-0.180696397755224,-0.457366897406262,0.913320923185796
"1922","control","block 1",23,"1",790,96,"md_as_14",1.60859556045665,-0.800737825909798,0.913320923185796
"1929","control","block 1",24,"2",2030,51,"md_as_14",-0.180696397755224,-0.028153236776841,0.913320923185796
"1936","control","block 1",25,"2",2278,57,"md_as_14",0.0578758633396926,-1.27287285260216,0.913320923185796
"1944","control","block 2",1,"1",3501,71,"md_as_14",0.614544472561164,-0.886580558035682,0.913320923185796
"1951","control","block 2",2,"2",2882,76,"md_as_14",0.81335469014026,-1.10118738835039,0.913320923185796
"1958","control","block 2",3,"1",2625,67,"md_as_14",0.455496298497886,-0.929501924098624,0.913320923185796
"1965","control","block 2",4,"2",2692,60,"md_as_14",0.177161993887151,-0.757816459846856,0.913320923185796
"1972","control","block 2",5,"1",2677,64,"md_as_14",0.336210167950428,-1.35871558472804,0.913320923185796
"1979","control","block 2",6,"2",3878,67,"md_as_14",0.455496298497886,-0.84365919197274,0.913320923185796
"1986","control","block 2",7,"1",1944,75,"md_as_14",0.773592646624441,-1.6162437811057,0.913320923185796
"1993","control","block 2",8,"2",2530,53,"md_as_14",-0.101172310723585,-1.44455831685393,0.913320923185796
"2000","control","block 2",9,"1",2510,55,"md_as_14",-0.0216482236919461,-1.6162437811057,0.913320923185796
"2007","control","block 2",10,"2",2034,69,"md_as_14",0.535020385529525,-0.285681433154493,0.913320923185796
"2014","control","block 2",11,"1",2459,87,"md_as_14",1.25073716881427,-0.800737825909798,0.913320923185796
"2021","control","block 2",12,"1",1548,80,"md_as_14",0.972402864203538,-0.84365919197274,0.913320923185796
"2028","control","block 2",13,"1",1719,78,"md_as_14",0.892878777171899,-0.586130995595088,0.913320923185796
"2035","control","block 2",14,"2",2294,65,"md_as_14",0.375972211466247,-1.6162437811057,0.913320923185796
"2042","control","block 2",15,"1",3317,76,"md_as_14",0.81335469014026,-1.6162437811057,0.913320923185796
"2049","control","block 2",16,"2",3572,72,"md_as_14",0.654306516076983,-0.586130995595088,0.913320923185796
"2056","control","block 2",17,"1",3197,68,"md_as_14",0.495258342013705,-0.800737825909798,0.913320923185796
"2063","control","block 2",18,"1",2968,73,"md_as_14",0.694068559592802,-0.972423290161566,0.913320923185796
"2070","control","block 2",19,"2",3488,46,"md_as_14",-0.37950661533432,-1.22995148653922,0.913320923185796
"2077","control","block 2",20,"2",2514,74,"md_as_14",0.733830603108622,-1.95961470960923,0.913320923185796
"2084","control","block 2",21,"1",1371,90,"md_as_14",1.37002329936173,-0.800737825909798,0.913320923185796
"2091","control","block 2",22,"2",1721,60,"md_as_14",0.177161993887151,0.100610861411985,0.913320923185796
"2098","control","block 2",23,"1",2442,69,"md_as_14",0.535020385529525,-1.40163695079099,0.913320923185796
"2105","control","block 2",24,"2",3321,46,"md_as_14",-0.37950661533432,-1.27287285260216,0.913320923185796
"2112","control","block 2",25,"2",1846,70,"md_as_14",0.574782429045344,-1.78792924535747,0.913320923185796
"2120","treatment","block 1",1,"1",2343,100,"md_as_15",1.76764373451992,1.30240911117436,1.09734827337995
"2127","treatment","block 1",2,"2",3912,13,"md_as_15",-1.69165405135636,0.701509986293174,1.09734827337995
"2134","treatment","block 1",3,"1",2491,96,"md_as_15",1.60859556045665,-1.44455831685393,1.09734827337995
"2141","treatment","block 1",4,"1",1813,90,"md_as_15",1.37002329936173,0.916116816607885,1.09734827337995
"2148","treatment","block 1",5,"1",2647,90,"md_as_15",1.37002329936173,0.272296325663754,1.09734827337995
"2155","treatment","block 1",6,"1",2602,100,"md_as_15",1.76764373451992,0.186453593537869,1.09734827337995
"2162","treatment","block 1",7,"1",4616,64,"md_as_15",0.336210167950428,-0.457366897406262,1.09734827337995
"2169","treatment","block 1",8,"1",3884,100,"md_as_15",1.76764373451992,0.873195450544942,1.09734827337995
"2176","treatment","block 1",9,"2",2782,0,"md_as_15",-2.20856061706201,1.73162277180378,1.09734827337995
"2183","treatment","block 1",10,"1",1784,84,"md_as_15",1.13145103826682,0.100610861411985,1.09734827337995
"2190","treatment","block 1",11,"2",1568,16,"md_as_15",-1.5723679208089,-0.156917334965667,1.09734827337995
"2197","treatment","block 1",12,"1",3720,77,"md_as_15",0.85311673365608,0.229374959600811,1.09734827337995
"2204","treatment","block 1",13,"1",4695,100,"md_as_15",1.76764373451992,1.25948774511142,1.09734827337995
"2211","treatment","block 1",14,"1",6016,86,"md_as_15",1.21097512529845,-0.328602799217435,1.09734827337995
"2218","treatment","block 1",15,"1",1498,83,"md_as_15",1.091688994751,0.873195450544942,1.09734827337995
"2225","treatment","block 1",16,"1",2175,90,"md_as_15",1.37002329936173,-0.328602799217435,1.09734827337995
"2232","treatment","block 1",17,"2",2942,12,"md_as_15",-1.73141609487218,0.486903155978464,1.09734827337995
"2239","treatment","block 1",18,"1",1667,80,"md_as_15",0.972402864203538,-1.18703012047628,1.09734827337995
"2246","treatment","block 1",19,"1",3248,81,"md_as_15",1.01216490771936,1.00195954873377,1.09734827337995
"2253","treatment","block 1",20,"1",1530,80,"md_as_15",0.972402864203538,1.25948774511142,1.09734827337995
"2260","treatment","block 1",21,"2",5120,27,"md_as_15",-1.13498544213489,1.00195954873377,1.09734827337995
"2267","treatment","block 1",22,"1",5215,91,"md_as_15",1.40978534287755,0.916116816607885,1.09734827337995
"2274","treatment","block 1",23,"1",1260,94,"md_as_15",1.52907147342501,1.34533047723731,1.09734827337995
"2281","treatment","block 1",24,"1",3510,73,"md_as_15",0.694068559592802,-1.05826602228745,1.09734827337995
"2288","treatment","block 1",25,"1",1669,94,"md_as_15",1.52907147342501,1.47409457542613,1.09734827337995
"2296","treatment","block 2",1,"2",3986,0,"md_as_15",-2.20856061706201,1.17364501298554,1.09734827337995
"2303","treatment","block 2",2,"1",1793,88,"md_as_15",1.29049921233009,0.0147681292861011,1.09734827337995
"2310","treatment","block 2",3,"2",1390,9,"md_as_15",-1.85070222541964,0.61566725416729,1.09734827337995
"2317","treatment","block 2",4,"2",5281,15,"md_as_15",-1.61212996432472,0.358139057789638,1.09734827337995
"2324","treatment","block 2",5,"2",1842,89,"md_as_15",1.33026125584591,-0.500288263469204,1.09734827337995
"2331","treatment","block 2",6,"2",2520,39,"md_as_15",-0.657840919945056,1.00195954873377,1.09734827337995
"2338","treatment","block 2",7,"2",3781,11,"md_as_15",-1.771178138388,0.916116816607885,1.09734827337995
"2345","treatment","block 2",8,"2",3817,10,"md_as_15",-1.81094018190382,-1.01534465622451,1.09734827337995
"2352","treatment","block 2",9,"1",4202,79,"md_as_15",0.932640820687718,-0.972423290161566,1.09734827337995
"2359","treatment","block 2",10,"2",6016,45,"md_as_15",-0.41926865885014,-1.05826602228745,1.09734827337995
"2366","treatment","block 2",11,"1",2204,91,"md_as_15",1.40978534287755,-0.671973727720972,1.09734827337995
"2373","treatment","block 2",12,"2",2686,29,"md_as_15",-1.05546135510325,0.787352718419058,1.09734827337995
"2380","treatment","block 2",13,"2",2563,76,"md_as_15",0.81335469014026,-1.27287285260216,1.09734827337995
"2387","treatment","block 2",14,"2",3033,76,"md_as_15",0.81335469014026,-0.371524165280378,1.09734827337995
"2394","treatment","block 2",15,"2",2296,29,"md_as_15",-1.05546135510325,-0.62905236165803,1.09734827337995
"2401","treatment","block 2",16,"2",2652,23,"md_as_15",-1.29403361619817,1.55993730755202,1.09734827337995
"2408","treatment","block 2",17,"1",1545,51,"md_as_15",-0.180696397755224,-0.371524165280378,1.09734827337995
"2415","treatment","block 2",18,"2",1592,7,"md_as_15",-1.93022631245128,0.0147681292861011,1.09734827337995
"2422","treatment","block 2",19,"2",3819,9,"md_as_15",-1.85070222541964,-2.04545744173512,1.09734827337995
"2429","treatment","block 2",20,"2",2719,10,"md_as_15",-1.81094018190382,0.443981789915522,1.09734827337995
"2436","treatment","block 2",21,"1",2339,26,"md_as_15",-1.17474748565071,0.486903155978464,1.09734827337995
"2443","treatment","block 2",22,"2",1439,9,"md_as_15",-1.85070222541964,1.04488091479671,1.09734827337995
"2450","treatment","block 2",23,"2",2054,72,"md_as_15",0.654306516076983,-0.285681433154493,1.09734827337995
"2457","treatment","block 2",24,"2",3078,48,"md_as_15",-0.299982528302682,0.61566725416729,1.09734827337995
"2464","treatment","block 2",25,"2",2305,18,"md_as_15",-1.49284383377726,-0.714895093783914,1.09734827337995
"2472","control","block 1",1,"1",2650,96,"md_as_15",1.60859556045665,1.25948774511142,1.09734827337995
"2479","control","block 1",2,"2",3837,4,"md_as_15",-2.04951244299873,0.744431352356116,1.09734827337995
"2486","control","block 1",3,"1",2290,88,"md_as_15",1.29049921233009,0.186453593537869,1.09734827337995
"2493","control","block 1",4,"2",1425,1,"md_as_15",-2.16879857354619,-0.113995968902725,1.09734827337995
"2500","control","block 1",5,"1",1812,69,"md_as_15",0.535020385529525,0.443981789915522,1.09734827337995
"2507","control","block 1",6,"2",3112,13,"md_as_15",-1.69165405135636,1.30240911117436,1.09734827337995
"2514","control","block 1",7,"1",913,70,"md_as_15",0.574782429045344,-0.757816459846856,1.09734827337995
"2521","control","block 1",8,"2",3538,21,"md_as_15",-1.3735577032298,0.787352718419058,1.09734827337995
"2528","control","block 1",9,"1",5056,72,"md_as_15",0.654306516076983,-2.04545744173512,1.09734827337995
"2535","control","block 1",10,"2",2937,0,"md_as_15",-2.20856061706201,1.6457800396779,1.09734827337995
"2542","control","block 1",11,"1",3511,84,"md_as_15",1.13145103826682,0.315217691726696,1.09734827337995
"2549","control","block 1",12,"1",1590,90,"md_as_15",1.37002329936173,0.443981789915522,1.09734827337995
"2556","control","block 1",13,"2",2012,21,"md_as_15",-1.3735577032298,-0.199838701028609,1.09734827337995
"2563","control","block 1",14,"2",3435,19,"md_as_15",-1.45308179026144,-1.3157942186651,1.09734827337995
"2570","control","block 1",15,"1",947,90,"md_as_15",1.37002329936173,0.744431352356116,1.09734827337995
"2577","control","block 1",16,"2",3320,21,"md_as_15",-1.3735577032298,0.787352718419058,1.09734827337995
"2584","control","block 1",17,"1",5314,48,"md_as_15",-0.299982528302682,0.443981789915522,1.09734827337995
"2591","control","block 1",18,"1",2189,96,"md_as_15",1.60859556045665,-0.199838701028609,1.09734827337995
"2598","control","block 1",19,"2",665,30,"md_as_15",-1.01569931158743,-0.671973727720972,1.09734827337995
"2605","control","block 1",20,"2",1199,3,"md_as_15",-2.08927448651455,1.81746550392967,1.09734827337995
"2612","control","block 1",21,"1",1141,80,"md_as_15",0.972402864203538,0.787352718419058,1.09734827337995
"2619","control","block 1",22,"2",6003,0,"md_as_15",-2.20856061706201,2.07499370030732,1.09734827337995
"2626","control","block 1",23,"1",651,80,"md_as_15",0.972402864203538,1.08780228085965,1.09734827337995
"2633","control","block 1",24,"2",1240,20,"md_as_15",-1.41331974674562,-1.18703012047628,1.09734827337995
"2640","control","block 1",25,"2",1650,20,"md_as_15",-1.41331974674562,-1.6162437811057,1.09734827337995
"2648","control","block 2",1,"1",1752,87,"md_as_15",1.25073716881427,-0.156917334965667,1.09734827337995
"2655","control","block 2",2,"2",2075,76,"md_as_15",0.81335469014026,0.959038182670827,1.09734827337995
"2662","control","block 2",3,"1",506,10,"md_as_15",-1.81094018190382,-0.500288263469204,1.09734827337995
"2669","control","block 2",4,"2",2706,0,"md_as_15",-2.20856061706201,1.81746550392967,1.09734827337995
"2676","control","block 2",5,"1",2724,77,"md_as_15",0.85311673365608,1.6457800396779,1.09734827337995
"2683","control","block 2",6,"2",4832,8,"md_as_15",-1.89046426893546,0.529824522041406,1.09734827337995
"2690","control","block 2",7,"1",1496,100,"md_as_15",1.76764373451992,-0.543209629532146,1.09734827337995
"2697","control","block 2",8,"2",2278,17,"md_as_15",-1.53260587729308,1.55993730755202,1.09734827337995
"2704","control","block 2",9,"1",1394,10,"md_as_15",-1.81094018190382,1.81746550392967,1.09734827337995
"2711","control","block 2",10,"2",2163,18,"md_as_15",-1.49284383377726,-0.757816459846856,1.09734827337995
"2718","control","block 2",11,"1",6016,48,"md_as_15",-0.299982528302682,0.572745888104348,1.09734827337995
"2725","control","block 2",12,"1",1573,95,"md_as_15",1.56883351694083,-0.071074602839783,1.09734827337995
"2732","control","block 2",13,"1",2054,32,"md_as_15",-0.936175224555791,0.315217691726696,1.09734827337995
"2739","control","block 2",14,"2",3956,33,"md_as_15",-0.896413181039972,1.47409457542613,1.09734827337995
"2746","control","block 2",15,"1",3239,76,"md_as_15",0.81335469014026,1.43117320936319,1.09734827337995
"2753","control","block 2",16,"2",4959,58,"md_as_15",0.097637906855512,-0.757816459846856,1.09734827337995
"2760","control","block 2",17,"1",1418,80,"md_as_15",0.972402864203538,0.959038182670827,1.09734827337995
"2767","control","block 2",18,"1",1393,76,"md_as_15",0.81335469014026,-0.113995968902725,1.09734827337995
"2774","control","block 2",19,"2",3309,14,"md_as_15",-1.65189200784054,-0.371524165280378,1.09734827337995
"2781","control","block 2",20,"2",4702,17,"md_as_15",-1.53260587729308,0.787352718419058,1.09734827337995
"2788","control","block 2",21,"1",2649,71,"md_as_15",0.614544472561164,1.34533047723731,1.09734827337995
"2795","control","block 2",22,"2",3496,19,"md_as_15",-1.45308179026144,-1.14410875441333,1.09734827337995
"2802","control","block 2",23,"1",1796,84,"md_as_15",1.13145103826682,-0.328602799217435,1.09734827337995
"2809","control","block 2",24,"2",1863,26,"md_as_15",-1.17474748565071,0.959038182670827,1.09734827337995
"2816","control","block 2",25,"2",3749,16,"md_as_15",-1.5723679208089,-1.48747968291687,1.09734827337995
"2824","control","block 1",1,"1",2954,66,"md_as_16",0.415734254982067,-0.886580558035682,-0.374870528173274
"2831","control","block 1",2,"2",2279,46,"md_as_16",-0.37950661533432,-0.586130995595088,-0.374870528173274
"2838","control","block 1",3,"1",2573,58,"md_as_16",0.097637906855512,-1.05826602228745,-0.374870528173274
"2845","control","block 1",4,"2",2764,52,"md_as_16",-0.140934354239404,-0.586130995595088,-0.374870528173274
"2852","control","block 1",5,"1",2114,64,"md_as_16",0.336210167950428,-0.714895093783914,-0.374870528173274
"2859","control","block 1",6,"2",2672,40,"md_as_16",-0.618078876429236,-1.22995148653922,-0.374870528173274
"2866","control","block 1",7,"1",3188,63,"md_as_16",0.296448124434609,-1.05826602228745,-0.374870528173274
"2873","control","block 1",8,"2",2254,51,"md_as_16",-0.180696397755224,-0.929501924098624,-0.374870528173274
"2880","control","block 1",9,"1",2522,65,"md_as_16",0.375972211466247,-0.886580558035682,-0.374870528173274
"2887","control","block 1",10,"2",2017,42,"md_as_16",-0.538554789397598,-0.972423290161566,-0.374870528173274
"2894","control","block 1",11,"1",1558,52,"md_as_16",-0.140934354239404,-1.05826602228745,-0.374870528173274
"2901","control","block 1",12,"1",2230,60,"md_as_16",0.177161993887151,-1.18703012047628,-0.374870528173274
"2908","control","block 1",13,"2",2646,36,"md_as_16",-0.777127050492514,-1.18703012047628,-0.374870528173274
"2915","control","block 1",14,"2",3041,41,"md_as_16",-0.578316832913417,-1.40163695079099,-0.374870528173274
"2922","control","block 1",15,"1",2261,59,"md_as_16",0.137399950371331,-1.22995148653922,-0.374870528173274
"2929","control","block 1",16,"2",2650,42,"md_as_16",-0.538554789397598,-1.40163695079099,-0.374870528173274
"2936","control","block 1",17,"1",2765,65,"md_as_16",0.375972211466247,-1.40163695079099,-0.374870528173274
"2943","control","block 1",18,"1",2465,57,"md_as_16",0.0578758633396926,-1.10118738835039,-0.374870528173274
"2950","control","block 1",19,"2",1356,41,"md_as_16",-0.578316832913417,-1.3157942186651,-0.374870528173274
"2957","control","block 1",20,"2",3190,40,"md_as_16",-0.618078876429236,-1.22995148653922,-0.374870528173274
"2964","control","block 1",21,"1",2753,57,"md_as_16",0.0578758633396926,-1.10118738835039,-0.374870528173274
"2971","control","block 1",22,"2",2140,39,"md_as_16",-0.657840919945056,-1.01534465622451,-0.374870528173274
"2978","control","block 1",23,"1",2800,65,"md_as_16",0.375972211466247,-1.18703012047628,-0.374870528173274
"2985","control","block 1",24,"2",3467,37,"md_as_16",-0.737365006976694,-1.22995148653922,-0.374870528173274
"2992","control","block 1",25,"2",3293,39,"md_as_16",-0.657840919945056,-1.27287285260216,-0.374870528173274
"3000","control","block 2",1,"1",2688,60,"md_as_16",0.177161993887151,-1.27287285260216,-0.374870528173274
"3007","control","block 2",2,"2",3732,60,"md_as_16",0.177161993887151,-1.14410875441333,-0.374870528173274
"3014","control","block 2",3,"1",1693,66,"md_as_16",0.415734254982067,-1.05826602228745,-0.374870528173274
"3021","control","block 2",4,"2",1880,41,"md_as_16",-0.578316832913417,-1.05826602228745,-0.374870528173274
"3028","control","block 2",5,"1",1623,68,"md_as_16",0.495258342013705,-1.05826602228745,-0.374870528173274
"3035","control","block 2",6,"2",1794,35,"md_as_16",-0.816889094008333,-0.886580558035682,-0.374870528173274
"3042","control","block 2",7,"1",2704,68,"md_as_16",0.495258342013705,-1.22995148653922,-0.374870528173274
"3049","control","block 2",8,"2",1639,38,"md_as_16",-0.697602963460875,-1.40163695079099,-0.374870528173274
"3056","control","block 2",9,"1",1807,70,"md_as_16",0.574782429045344,-1.3157942186651,-0.374870528173274
"3063","control","block 2",10,"2",1858,40,"md_as_16",-0.618078876429236,-1.40163695079099,-0.374870528173274
"3070","control","block 2",11,"1",1486,66,"md_as_16",0.415734254982067,-1.57332241504276,-0.374870528173274
"3077","control","block 2",12,"1",1723,63,"md_as_16",0.296448124434609,-1.22995148653922,-0.374870528173274
"3084","control","block 2",13,"1",2727,64,"md_as_16",0.336210167950428,-1.35871558472804,-0.374870528173274
"3091","control","block 2",14,"2",1741,40,"md_as_16",-0.618078876429236,-1.57332241504276,-0.374870528173274
"3098","control","block 2",15,"1",1782,72,"md_as_16",0.654306516076983,-1.18703012047628,-0.374870528173274
"3105","control","block 2",16,"2",967,38,"md_as_16",-0.697602963460875,-1.01534465622451,-0.374870528173274
"3112","control","block 2",17,"1",1850,66,"md_as_16",0.415734254982067,-1.18703012047628,-0.374870528173274
"3119","control","block 2",18,"1",2257,64,"md_as_16",0.336210167950428,-1.01534465622451,-0.374870528173274
"3126","control","block 2",19,"2",2803,32,"md_as_16",-0.936175224555791,-1.3157942186651,-0.374870528173274
"3133","control","block 2",20,"2",2639,24,"md_as_16",-1.25427157268235,-1.18703012047628,-0.374870528173274
"3140","control","block 2",21,"1",1340,68,"md_as_16",0.495258342013705,-1.14410875441333,-0.374870528173274
"3147","control","block 2",22,"2",2608,34,"md_as_16",-0.856651137524152,-0.972423290161566,-0.374870528173274
"3154","control","block 2",23,"1",1754,66,"md_as_16",0.415734254982067,-0.972423290161566,-0.374870528173274
"3161","control","block 2",24,"2",1447,37,"md_as_16",-0.737365006976694,-1.14410875441333,-0.374870528173274
"3168","control","block 2",25,"2",1675,38,"md_as_16",-0.697602963460875,-1.40163695079099,-0.374870528173274
"3176","treatment","block 1",1,"1",2697,62,"md_as_16",0.256686080918789,-1.05826602228745,-0.374870528173274
"3183","treatment","block 1",2,"2",1249,47,"md_as_16",-0.339744571818501,-1.05826602228745,-0.374870528173274
"3190","treatment","block 1",3,"1",2909,48,"md_as_16",-0.299982528302682,-1.05826602228745,-0.374870528173274
"3197","treatment","block 1",4,"1",1262,60,"md_as_16",0.177161993887151,-0.886580558035682,-0.374870528173274
"3204","treatment","block 1",5,"1",2633,70,"md_as_16",0.574782429045344,-1.05826602228745,-0.374870528173274
"3211","treatment","block 1",6,"1",1605,64,"md_as_16",0.336210167950428,-1.01534465622451,-0.374870528173274
"3218","treatment","block 1",7,"1",1679,68,"md_as_16",0.495258342013705,-1.01534465622451,-0.374870528173274
"3225","treatment","block 1",8,"1",2686,64,"md_as_16",0.336210167950428,-1.18703012047628,-0.374870528173274
"3232","treatment","block 1",9,"2",2465,39,"md_as_16",-0.657840919945056,-1.01534465622451,-0.374870528173274
"3239","treatment","block 1",10,"1",1404,69,"md_as_16",0.535020385529525,-1.40163695079099,-0.374870528173274
"3246","treatment","block 1",11,"2",2161,40,"md_as_16",-0.618078876429236,-1.10118738835039,-0.374870528173274
"3253","treatment","block 1",12,"1",1952,60,"md_as_16",0.177161993887151,-1.3157942186651,-0.374870528173274
"3260","treatment","block 1",13,"1",1393,68,"md_as_16",0.495258342013705,-0.84365919197274,-0.374870528173274
"3267","treatment","block 1",14,"1",1269,66,"md_as_16",0.415734254982067,-0.800737825909798,-0.374870528173274
"3274","treatment","block 1",15,"1",2136,67,"md_as_16",0.455496298497886,-1.18703012047628,-0.374870528173274
"3281","treatment","block 1",16,"1",1420,64,"md_as_16",0.336210167950428,-0.929501924098624,-0.374870528173274
"3288","treatment","block 1",17,"2",1847,42,"md_as_16",-0.538554789397598,-1.18703012047628,-0.374870528173274
"3295","treatment","block 1",18,"1",1581,66,"md_as_16",0.415734254982067,-0.886580558035682,-0.374870528173274
"3302","treatment","block 1",19,"1",3216,67,"md_as_16",0.455496298497886,-1.05826602228745,-0.374870528173274
"3309","treatment","block 1",20,"1",1927,60,"md_as_16",0.177161993887151,-0.757816459846856,-0.374870528173274
"3316","treatment","block 1",21,"2",2176,40,"md_as_16",-0.618078876429236,-0.886580558035682,-0.374870528173274
"3323","treatment","block 1",22,"1",1251,64,"md_as_16",0.336210167950428,-1.22995148653922,-0.374870528173274
"3330","treatment","block 1",23,"1",2638,61,"md_as_16",0.21692403740297,-0.886580558035682,-0.374870528173274
"3337","treatment","block 1",24,"1",2200,60,"md_as_16",0.177161993887151,-0.972423290161566,-0.374870528173274
"3344","treatment","block 1",25,"1",2306,65,"md_as_16",0.375972211466247,-0.886580558035682,-0.374870528173274
"3352","treatment","block 2",1,"2",2049,38,"md_as_16",-0.697602963460875,-1.3157942186651,-0.374870528173274
"3359","treatment","block 2",2,"1",1804,60,"md_as_16",0.177161993887151,-1.40163695079099,-0.374870528173274
"3366","treatment","block 2",3,"2",2188,41,"md_as_16",-0.578316832913417,-1.01534465622451,-0.374870528173274
"3373","treatment","block 2",4,"2",2145,43,"md_as_16",-0.498792745881778,-0.972423290161566,-0.374870528173274
"3380","treatment","block 2",5,"2",1350,37,"md_as_16",-0.737365006976694,-1.3157942186651,-0.374870528173274
"3387","treatment","block 2",6,"2",1039,38,"md_as_16",-0.697602963460875,-1.01534465622451,-0.374870528173274
"3394","treatment","block 2",7,"2",1483,29,"md_as_16",-1.05546135510325,-0.886580558035682,-0.374870528173274
"3401","treatment","block 2",8,"2",1688,39,"md_as_16",-0.657840919945056,-0.800737825909798,-0.374870528173274
"3408","treatment","block 2",9,"1",1720,39,"md_as_16",-0.657840919945056,-1.53040104897981,-0.374870528173274
"3415","treatment","block 2",10,"2",2878,36,"md_as_16",-0.777127050492514,-1.22995148653922,-0.374870528173274
"3422","treatment","block 2",11,"1",1437,68,"md_as_16",0.495258342013705,-1.10118738835039,-0.374870528173274
"3429","treatment","block 2",12,"2",2038,40,"md_as_16",-0.618078876429236,-1.27287285260216,-0.374870528173274
"3436","treatment","block 2",13,"2",2217,30,"md_as_16",-1.01569931158743,-0.972423290161566,-0.374870528173274
"3443","treatment","block 2",14,"2",1196,35,"md_as_16",-0.816889094008333,-0.929501924098624,-0.374870528173274
"3450","treatment","block 2",15,"2",1294,46,"md_as_16",-0.37950661533432,-1.40163695079099,-0.374870528173274
"3457","treatment","block 2",16,"2",2924,38,"md_as_16",-0.697602963460875,-1.35871558472804,-0.374870528173274
"3464","treatment","block 2",17,"1",2266,65,"md_as_16",0.375972211466247,-1.01534465622451,-0.374870528173274
"3471","treatment","block 2",18,"2",783,68,"md_as_16",0.495258342013705,-1.01534465622451,-0.374870528173274
"3478","treatment","block 2",19,"2",1497,65,"md_as_16",0.375972211466247,-1.3157942186651,-0.374870528173274
"3485","treatment","block 2",20,"2",957,35,"md_as_16",-0.816889094008333,-1.05826602228745,-0.374870528173274
"3492","treatment","block 2",21,"1",1203,67,"md_as_16",0.455496298497886,-1.48747968291687,-0.374870528173274
"3499","treatment","block 2",22,"2",2409,38,"md_as_16",-0.697602963460875,-1.14410875441333,-0.374870528173274
"3506","treatment","block 2",23,"2",1349,33,"md_as_16",-0.896413181039972,-0.972423290161566,-0.374870528173274
"3513","treatment","block 2",24,"2",1459,31,"md_as_16",-0.975937268071611,-1.18703012047628,-0.374870528173274
"3520","treatment","block 2",25,"2",2717,28,"md_as_16",-1.09522339861907,-1.3157942186651,-0.374870528173274
"3528","control","block 1",1,"1",1840,96,"md_as_17",1.60859556045665,-0.071074602839783,-2.58319873050311
"3535","control","block 1",2,"2",1508,30,"md_as_17",-1.01569931158743,0.959038182670827,-2.58319873050311
"3542","control","block 1",3,"1",3677,51,"md_as_17",-0.180696397755224,0.186453593537869,-2.58319873050311
"3549","control","block 1",4,"2",6001,45,"md_as_17",-0.41926865885014,0.744431352356116,-2.58319873050311
"3556","control","block 1",5,"1",3906,50,"md_as_17",-0.220458441271043,-1.91669334354629,-2.58319873050311
"3563","control","block 1",6,"2",4407,51,"md_as_17",-0.180696397755224,0.315217691726696,-2.58319873050311
"3570","control","block 1",7,"1",4185,56,"md_as_17",0.0181138198238733,0.0147681292861011,-2.58319873050311
"3577","control","block 1",8,"2",3978,48,"md_as_17",-0.299982528302682,0.143532227474927,-2.58319873050311
"3584","control","block 1",9,"1",6016,52,"md_as_17",-0.140934354239404,-0.457366897406262,-2.58319873050311
"3591","control","block 1",10,"2",5695,62,"md_as_17",0.256686080918789,-0.028153236776841,-2.58319873050311
"3598","control","block 1",11,"1",2621,50,"md_as_17",-0.220458441271043,0.272296325663754,-2.58319873050311
"3605","control","block 1",12,"1",3734,52,"md_as_17",-0.140934354239404,-0.071074602839783,-2.58319873050311
"3612","control","block 1",13,"2",2761,48,"md_as_17",-0.299982528302682,0.358139057789638,-2.58319873050311
"3619","control","block 1",14,"2",6002,49,"md_as_17",-0.260220484786862,-0.156917334965667,-2.58319873050311
"3626","control","block 1",15,"1",3435,53,"md_as_17",-0.101172310723585,0.186453593537869,-2.58319873050311
"3633","control","block 1",16,"2",2326,38,"md_as_17",-0.697602963460875,0.272296325663754,-2.58319873050311
"3640","control","block 1",17,"1",2805,42,"md_as_17",-0.538554789397598,-0.328602799217435,-2.58319873050311
"3647","control","block 1",18,"1",5396,46,"md_as_17",-0.37950661533432,-0.500288263469204,-2.58319873050311
"3654","control","block 1",19,"2",2083,40,"md_as_17",-0.618078876429236,-0.156917334965667,-2.58319873050311
"3661","control","block 1",20,"2",3455,44,"md_as_17",-0.459030702365959,-0.328602799217435,-2.58319873050311
"3668","control","block 1",21,"1",3112,41,"md_as_17",-0.578316832913417,-0.156917334965667,-2.58319873050311
"3675","control","block 1",22,"2",3211,38,"md_as_17",-0.697602963460875,-0.62905236165803,-2.58319873050311
"3682","control","block 1",23,"1",4878,52,"md_as_17",-0.140934354239404,-0.371524165280378,-2.58319873050311
"3689","control","block 1",24,"2",3124,39,"md_as_17",-0.657840919945056,0.100610861411985,-2.58319873050311
"3696","control","block 1",25,"2",2565,49,"md_as_17",-0.260220484786862,-0.113995968902725,-2.58319873050311
"3704","control","block 2",1,"1",3596,68,"md_as_17",0.495258342013705,0.100610861411985,-2.58319873050311
"3711","control","block 2",2,"2",3008,45,"md_as_17",-0.41926865885014,0.529824522041406,-2.58319873050311
"3718","control","block 2",3,"1",6010,56,"md_as_17",0.0181138198238733,0.0576894953490432,-2.58319873050311
"3725","control","block 2",4,"2",3393,51,"md_as_17",-0.180696397755224,0.272296325663754,-2.58319873050311
"3732","control","block 2",5,"1",6008,59,"md_as_17",0.137399950371331,0.229374959600811,-2.58319873050311
"3739","control","block 2",6,"2",5014,58,"md_as_17",0.097637906855512,0.40106042385258,-2.58319873050311
"3746","control","block 2",7,"1",2826,56,"md_as_17",0.0181138198238733,0.529824522041406,-2.58319873050311
"3753","control","block 2",8,"2",2757,57,"md_as_17",0.0578758633396926,0.40106042385258,-2.58319873050311
"3760","control","block 2",9,"1",1719,70,"md_as_17",0.574782429045344,0.143532227474927,-2.58319873050311
"3767","control","block 2",10,"2",3722,40,"md_as_17",-0.618078876429236,0.658588620230232,-2.58319873050311
"3774","control","block 2",11,"1",5017,49,"md_as_17",-0.260220484786862,0.100610861411985,-2.58319873050311
"3781","control","block 2",12,"1",3683,65,"md_as_17",0.375972211466247,0.443981789915522,-2.58319873050311
"3788","control","block 2",13,"1",2848,58,"md_as_17",0.097637906855512,0.61566725416729,-2.58319873050311
"3795","control","block 2",14,"2",2417,49,"md_as_17",-0.260220484786862,0.358139057789638,-2.58319873050311
"3802","control","block 2",15,"1",4835,61,"md_as_17",0.21692403740297,0.658588620230232,-2.58319873050311
"3809","control","block 2",16,"2",4129,44,"md_as_17",-0.459030702365959,0.358139057789638,-2.58319873050311
"3816","control","block 2",17,"1",1786,61,"md_as_17",0.21692403740297,0.701509986293174,-2.58319873050311
"3823","control","block 2",18,"1",2951,53,"md_as_17",-0.101172310723585,0.40106042385258,-2.58319873050311
"3830","control","block 2",19,"2",4007,53,"md_as_17",-0.101172310723585,0.529824522041406,-2.58319873050311
"3837","control","block 2",20,"2",1831,36,"md_as_17",-0.777127050492514,0.186453593537869,-2.58319873050311
"3844","control","block 2",21,"1",2858,61,"md_as_17",0.21692403740297,-0.156917334965667,-2.58319873050311
"3851","control","block 2",22,"2",3212,43,"md_as_17",-0.498792745881778,0.229374959600811,-2.58319873050311
"3858","control","block 2",23,"1",2933,51,"md_as_17",-0.180696397755224,0.315217691726696,-2.58319873050311
"3865","control","block 2",24,"2",4360,35,"md_as_17",-0.816889094008333,0.315217691726696,-2.58319873050311
"3872","control","block 2",25,"2",2818,51,"md_as_17",-0.180696397755224,0.529824522041406,-2.58319873050311
"3880","treatment","block 1",1,"1",3459,71,"md_as_17",0.614544472561164,0.40106042385258,-2.58319873050311
"3887","treatment","block 1",2,"2",1628,73,"md_as_17",0.694068559592802,1.04488091479671,-2.58319873050311
"3894","treatment","block 1",3,"1",2593,68,"md_as_17",0.495258342013705,0.830274084482,-2.58319873050311
"3901","treatment","block 1",4,"1",1621,68,"md_as_17",0.495258342013705,0.486903155978464,-2.58319873050311
"3908","treatment","block 1",5,"1",1087,70,"md_as_17",0.574782429045344,0.744431352356116,-2.58319873050311
"3915","treatment","block 1",6,"1",1786,68,"md_as_17",0.495258342013705,0.959038182670827,-2.58319873050311
"3922","treatment","block 1",7,"1",1496,68,"md_as_17",0.495258342013705,0.787352718419058,-2.58319873050311
"3929","treatment","block 1",8,"1",2526,63,"md_as_17",0.296448124434609,1.21656637904848,-2.58319873050311
"3936","treatment","block 1",9,"2",973,53,"md_as_17",-0.101172310723585,1.00195954873377,-2.58319873050311
"3943","treatment","block 1",10,"1",3007,59,"md_as_17",0.137399950371331,-0.071074602839783,-2.58319873050311
"3950","treatment","block 1",11,"2",1650,62,"md_as_17",0.256686080918789,0.529824522041406,-2.58319873050311
"3957","treatment","block 1",12,"1",2180,51,"md_as_17",-0.180696397755224,0.315217691726696,-2.58319873050311
"3964","treatment","block 1",13,"1",2976,58,"md_as_17",0.097637906855512,-0.028153236776841,-2.58319873050311
"3971","treatment","block 1",14,"1",2965,66,"md_as_17",0.415734254982067,0.443981789915522,-2.58319873050311
"3978","treatment","block 1",15,"1",635,10,"md_as_17",-1.81094018190382,0.315217691726696,-2.58319873050311
"3985","treatment","block 1",16,"1",4146,50,"md_as_17",-0.220458441271043,0.486903155978464,-2.58319873050311
"3992","treatment","block 1",17,"2",3378,56,"md_as_17",0.0181138198238733,0.272296325663754,-2.58319873050311
"3999","treatment","block 1",18,"1",2775,59,"md_as_17",0.137399950371331,0.486903155978464,-2.58319873050311
"4006","treatment","block 1",19,"1",1984,48,"md_as_17",-0.299982528302682,0.529824522041406,-2.58319873050311
"4013","treatment","block 1",20,"1",1580,51,"md_as_17",-0.180696397755224,0.572745888104348,-2.58319873050311
"4020","treatment","block 1",21,"2",1626,40,"md_as_17",-0.618078876429236,-0.156917334965667,-2.58319873050311
"4027","treatment","block 1",22,"1",2128,62,"md_as_17",0.256686080918789,0.229374959600811,-2.58319873050311
"4034","treatment","block 1",23,"1",1755,58,"md_as_17",0.097637906855512,0.229374959600811,-2.58319873050311
"4041","treatment","block 1",24,"1",4143,55,"md_as_17",-0.0216482236919461,0.315217691726696,-2.58319873050311
"4048","treatment","block 1",25,"1",1888,49,"md_as_17",-0.260220484786862,0.0147681292861011,-2.58319873050311
"4056","treatment","block 2",1,"2",2026,44,"md_as_17",-0.459030702365959,-0.113995968902725,-2.58319873050311
"4063","treatment","block 2",2,"1",1724,44,"md_as_17",-0.459030702365959,-0.328602799217435,-2.58319873050311
"4070","treatment","block 2",3,"2",2141,50,"md_as_17",-0.220458441271043,-0.071074602839783,-2.58319873050311
"4077","treatment","block 2",4,"2",755,30,"md_as_17",-1.01569931158743,-0.757816459846856,-2.58319873050311
"4084","treatment","block 2",5,"2",1039,40,"md_as_17",-0.618078876429236,-0.586130995595088,-2.58319873050311
"4091","treatment","block 2",6,"2",795,20,"md_as_17",-1.41331974674562,-0.757816459846856,-2.58319873050311
"4098","treatment","block 2",7,"2",1802,46,"md_as_17",-0.37950661533432,-0.071074602839783,-2.58319873050311
"4105","treatment","block 2",8,"2",2511,46,"md_as_17",-0.37950661533432,-0.071074602839783,-2.58319873050311
"4112","treatment","block 2",9,"1",1736,50,"md_as_17",-0.220458441271043,0.0147681292861011,-2.58319873050311
"4119","treatment","block 2",10,"2",2117,48,"md_as_17",-0.299982528302682,-0.199838701028609,-2.58319873050311
"4126","treatment","block 2",11,"1",1957,52,"md_as_17",-0.140934354239404,-0.328602799217435,-2.58319873050311
"4133","treatment","block 2",12,"2",1642,41,"md_as_17",-0.578316832913417,-0.071074602839783,-2.58319873050311
"4140","treatment","block 2",13,"2",1272,23,"md_as_17",-1.29403361619817,-0.071074602839783,-2.58319873050311
"4147","treatment","block 2",14,"2",3069,31,"md_as_17",-0.975937268071611,-1.18703012047628,-2.58319873050311
"4154","treatment","block 2",15,"2",2099,29,"md_as_17",-1.05546135510325,-0.543209629532146,-2.58319873050311
"4161","treatment","block 2",16,"2",1660,33,"md_as_17",-0.896413181039972,-0.886580558035682,-2.58319873050311
"4168","treatment","block 2",17,"1",881,40,"md_as_17",-0.618078876429236,-1.70208651323158,-2.58319873050311
"4175","treatment","block 2",18,"2",932,3,"md_as_17",-2.08927448651455,0.0576894953490432,-2.58319873050311
"4182","treatment","block 2",19,"2",3166,24,"md_as_17",-1.25427157268235,-1.05826602228745,-2.58319873050311
"4189","treatment","block 2",20,"2",975,3,"md_as_17",-2.08927448651455,-1.22995148653922,-2.58319873050311
"4196","treatment","block 2",21,"1",938,3,"md_as_17",-2.08927448651455,-1.14410875441333,-2.58319873050311
"4203","treatment","block 2",22,"2",1041,10,"md_as_17",-1.81094018190382,-1.05826602228745,-2.58319873050311
"4210","treatment","block 2",23,"2",1917,14,"md_as_17",-1.65189200784054,-1.27287285260216,-2.58319873050311
"4217","treatment","block 2",24,"2",1747,22,"md_as_17",-1.33379565971398,-2.04545744173512,-2.58319873050311
"4224","treatment","block 2",25,"2",2983,15,"md_as_17",-1.61212996432472,-1.3157942186651,-2.58319873050311
"4936","treatment","block 1",1,"1",2070,74,"md_as_19",0.733830603108622,-0.800737825909798,1.2813756235741
"4943","treatment","block 1",2,"2",3237,20,"md_as_19",-1.41331974674562,0.186453593537869,1.2813756235741
"4950","treatment","block 1",3,"1",1632,42,"md_as_19",-0.538554789397598,-1.74500787929452,1.2813756235741
"4957","treatment","block 1",4,"1",2343,81,"md_as_19",1.01216490771936,-1.18703012047628,1.2813756235741
"4964","treatment","block 1",5,"1",4421,50,"md_as_19",-0.220458441271043,-0.199838701028609,1.2813756235741
"4971","treatment","block 1",6,"1",3400,48,"md_as_19",-0.299982528302682,-0.242760067091551,1.2813756235741
"4978","treatment","block 1",7,"1",2747,56,"md_as_19",0.0181138198238733,-1.91669334354629,1.2813756235741
"4985","treatment","block 1",8,"1",4739,55,"md_as_19",-0.0216482236919461,-0.242760067091551,1.2813756235741
"4992","treatment","block 1",9,"2",3156,46,"md_as_19",-0.37950661533432,0.0576894953490432,1.2813756235741
"4999","treatment","block 1",10,"1",3475,48,"md_as_19",-0.299982528302682,-0.113995968902725,1.2813756235741
"5006","treatment","block 1",11,"2",3162,39,"md_as_19",-0.657840919945056,-0.113995968902725,1.2813756235741
"5013","treatment","block 1",12,"1",2891,37,"md_as_19",-0.737365006976694,-0.757816459846856,1.2813756235741
"5020","treatment","block 1",13,"1",2816,52,"md_as_19",-0.140934354239404,-0.113995968902725,1.2813756235741
"5027","treatment","block 1",14,"1",3567,59,"md_as_19",0.137399950371331,-0.371524165280378,1.2813756235741
"5034","treatment","block 1",15,"1",3208,56,"md_as_19",0.0181138198238733,-0.199838701028609,1.2813756235741
"5041","treatment","block 1",16,"1",1631,74,"md_as_19",0.733830603108622,-0.328602799217435,1.2813756235741
"5048","treatment","block 1",17,"2",4069,56,"md_as_19",0.0181138198238733,-0.328602799217435,1.2813756235741
"5055","treatment","block 1",18,"1",3053,61,"md_as_19",0.21692403740297,-0.328602799217435,1.2813756235741
"5062","treatment","block 1",19,"1",3048,61,"md_as_19",0.21692403740297,-0.285681433154493,1.2813756235741
"5069","treatment","block 1",20,"1",3608,62,"md_as_19",0.256686080918789,-0.328602799217435,1.2813756235741
"5076","treatment","block 1",21,"2",2094,60,"md_as_19",0.177161993887151,-0.113995968902725,1.2813756235741
"5083","treatment","block 1",22,"1",2783,67,"md_as_19",0.455496298497886,-0.500288263469204,1.2813756235741
"5090","treatment","block 1",23,"1",3876,57,"md_as_19",0.0578758633396926,-0.41444553134332,1.2813756235741
"5097","treatment","block 1",24,"1",4149,54,"md_as_19",-0.0614102672077654,-0.457366897406262,1.2813756235741
"5104","treatment","block 1",25,"1",3627,58,"md_as_19",0.097637906855512,-0.328602799217435,1.2813756235741
"5112","treatment","block 2",1,"2",3088,54,"md_as_19",-0.0614102672077654,-0.113995968902725,1.2813756235741
"5119","treatment","block 2",2,"1",3187,47,"md_as_19",-0.339744571818501,-0.500288263469204,1.2813756235741
"5126","treatment","block 2",3,"2",2399,31,"md_as_19",-0.975937268071611,-0.199838701028609,1.2813756235741
"5133","treatment","block 2",4,"2",3828,43,"md_as_19",-0.498792745881778,-0.457366897406262,1.2813756235741
"5140","treatment","block 2",5,"2",3902,29,"md_as_19",-1.05546135510325,-0.543209629532146,1.2813756235741
"5147","treatment","block 2",6,"2",5115,43,"md_as_19",-0.498792745881778,-0.500288263469204,1.2813756235741
"5154","treatment","block 2",7,"2",1979,36,"md_as_19",-0.777127050492514,-0.371524165280378,1.2813756235741
"5161","treatment","block 2",8,"2",3828,48,"md_as_19",-0.299982528302682,-0.543209629532146,1.2813756235741
"5168","treatment","block 2",9,"1",2979,38,"md_as_19",-0.697602963460875,-0.41444553134332,1.2813756235741
"5175","treatment","block 2",10,"2",2666,40,"md_as_19",-0.618078876429236,-0.500288263469204,1.2813756235741
"5182","treatment","block 2",11,"1",2163,46,"md_as_19",-0.37950661533432,-0.328602799217435,1.2813756235741
"5189","treatment","block 2",12,"2",2888,52,"md_as_19",-0.140934354239404,-0.371524165280378,1.2813756235741
"5196","treatment","block 2",13,"2",2802,33,"md_as_19",-0.896413181039972,-0.285681433154493,1.2813756235741
"5203","treatment","block 2",14,"2",4363,49,"md_as_19",-0.260220484786862,-0.500288263469204,1.2813756235741
"5210","treatment","block 2",15,"2",2772,35,"md_as_19",-0.816889094008333,-0.62905236165803,1.2813756235741
"5217","treatment","block 2",16,"2",1184,20,"md_as_19",-1.41331974674562,-0.500288263469204,1.2813756235741
"5224","treatment","block 2",17,"1",2868,43,"md_as_19",-0.498792745881778,-0.328602799217435,1.2813756235741
"5231","treatment","block 2",18,"2",4018,48,"md_as_19",-0.299982528302682,-0.285681433154493,1.2813756235741
"5238","treatment","block 2",19,"2",2830,41,"md_as_19",-0.578316832913417,-0.371524165280378,1.2813756235741
"5245","treatment","block 2",20,"2",2748,39,"md_as_19",-0.657840919945056,-0.586130995595088,1.2813756235741
"5252","treatment","block 2",21,"1",3224,46,"md_as_19",-0.37950661533432,-0.757816459846856,1.2813756235741
"5259","treatment","block 2",22,"2",1302,30,"md_as_19",-1.01569931158743,-0.285681433154493,1.2813756235741
"5266","treatment","block 2",23,"2",2312,33,"md_as_19",-0.896413181039972,-0.500288263469204,1.2813756235741
"5273","treatment","block 2",24,"2",2803,42,"md_as_19",-0.538554789397598,-0.41444553134332,1.2813756235741
"5280","treatment","block 2",25,"2",2730,38,"md_as_19",-0.697602963460875,-0.586130995595088,1.2813756235741
"5288","control","block 1",1,"1",2500,47,"md_as_19",-0.339744571818501,-0.500288263469204,1.2813756235741
"5295","control","block 1",2,"2",3244,50,"md_as_19",-0.220458441271043,-0.457366897406262,1.2813756235741
"5302","control","block 1",3,"1",2878,39,"md_as_19",-0.657840919945056,-0.500288263469204,1.2813756235741
"5309","control","block 1",4,"2",3853,49,"md_as_19",-0.260220484786862,-0.328602799217435,1.2813756235741
"5316","control","block 1",5,"1",2833,53,"md_as_19",-0.101172310723585,-0.757816459846856,1.2813756235741
"5323","control","block 1",6,"2",2711,49,"md_as_19",-0.260220484786862,-0.328602799217435,1.2813756235741
"5330","control","block 1",7,"1",2322,46,"md_as_19",-0.37950661533432,-0.62905236165803,1.2813756235741
"5337","control","block 1",8,"2",3124,49,"md_as_19",-0.260220484786862,-0.800737825909798,1.2813756235741
"5344","control","block 1",9,"1",3566,50,"md_as_19",-0.220458441271043,-0.757816459846856,1.2813756235741
"5351","control","block 1",10,"2",2619,39,"md_as_19",-0.657840919945056,-0.328602799217435,1.2813756235741
"5358","control","block 1",11,"1",2964,37,"md_as_19",-0.737365006976694,-0.800737825909798,1.2813756235741
"5365","control","block 1",12,"1",2126,39,"md_as_19",-0.657840919945056,-0.929501924098624,1.2813756235741
"5372","control","block 1",13,"2",4988,27,"md_as_19",-1.13498544213489,-0.800737825909798,1.2813756235741
"5379","control","block 1",14,"2",3156,37,"md_as_19",-0.737365006976694,-0.972423290161566,1.2813756235741
"5386","control","block 1",15,"1",2123,41,"md_as_19",-0.578316832913417,-0.757816459846856,1.2813756235741
"5393","control","block 1",16,"2",3941,32,"md_as_19",-0.936175224555791,-0.929501924098624,1.2813756235741
"5400","control","block 1",17,"1",2825,50,"md_as_19",-0.220458441271043,-1.35871558472804,1.2813756235741
"5407","control","block 1",18,"1",4808,47,"md_as_19",-0.339744571818501,-0.543209629532146,1.2813756235741
"5414","control","block 1",19,"2",4783,42,"md_as_19",-0.538554789397598,-1.10118738835039,1.2813756235741
"5421","control","block 1",20,"2",2573,42,"md_as_19",-0.538554789397598,-1.01534465622451,1.2813756235741
"5428","control","block 1",21,"1",1753,46,"md_as_19",-0.37950661533432,-1.05826602228745,1.2813756235741
"5435","control","block 1",22,"2",2844,52,"md_as_19",-0.140934354239404,-0.886580558035682,1.2813756235741
"5442","control","block 1",23,"1",2425,40,"md_as_19",-0.618078876429236,-1.01534465622451,1.2813756235741
"5449","control","block 1",24,"2",1933,51,"md_as_19",-0.180696397755224,-0.84365919197274,1.2813756235741
"5456","control","block 1",25,"2",2973,52,"md_as_19",-0.140934354239404,-0.457366897406262,1.2813756235741
"5464","control","block 2",1,"1",1660,65,"md_as_19",0.375972211466247,-0.84365919197274,1.2813756235741
"5471","control","block 2",2,"2",3478,61,"md_as_19",0.21692403740297,-0.500288263469204,1.2813756235741
"5478","control","block 2",3,"1",3096,57,"md_as_19",0.0578758633396926,-0.929501924098624,1.2813756235741
"5485","control","block 2",4,"2",4421,61,"md_as_19",0.21692403740297,-0.800737825909798,1.2813756235741
"5492","control","block 2",5,"1",1042,60,"md_as_19",0.177161993887151,-0.886580558035682,1.2813756235741
"5499","control","block 2",6,"2",2775,39,"md_as_19",-0.657840919945056,-0.757816459846856,1.2813756235741
"5506","control","block 2",7,"1",4106,47,"md_as_19",-0.339744571818501,-0.929501924098624,1.2813756235741
"5513","control","block 2",8,"2",1832,34,"md_as_19",-0.856651137524152,-1.05826602228745,1.2813756235741
"5520","control","block 2",9,"1",2647,43,"md_as_19",-0.498792745881778,-0.886580558035682,1.2813756235741
"5527","control","block 2",10,"2",2852,34,"md_as_19",-0.856651137524152,-0.800737825909798,1.2813756235741
"5534","control","block 2",11,"1",3186,42,"md_as_19",-0.538554789397598,-0.972423290161566,1.2813756235741
"5541","control","block 2",12,"1",2381,35,"md_as_19",-0.816889094008333,-1.05826602228745,1.2813756235741
"5548","control","block 2",13,"1",3621,41,"md_as_19",-0.578316832913417,-0.972423290161566,1.2813756235741
"5555","control","block 2",14,"2",1630,44,"md_as_19",-0.459030702365959,-0.800737825909798,1.2813756235741
"5562","control","block 2",15,"1",2854,51,"md_as_19",-0.180696397755224,-0.671973727720972,1.2813756235741
"5569","control","block 2",16,"2",1741,35,"md_as_19",-0.816889094008333,-0.757816459846856,1.2813756235741
"5576","control","block 2",17,"1",2589,55,"md_as_19",-0.0216482236919461,-0.543209629532146,1.2813756235741
"5583","control","block 2",18,"1",1272,41,"md_as_19",-0.578316832913417,-0.586130995595088,1.2813756235741
"5590","control","block 2",19,"2",3049,51,"md_as_19",-0.180696397755224,-0.886580558035682,1.2813756235741
"5597","control","block 2",20,"2",1963,43,"md_as_19",-0.498792745881778,-0.757816459846856,1.2813756235741
"5604","control","block 2",21,"1",1882,51,"md_as_19",-0.180696397755224,-0.84365919197274,1.2813756235741
"5611","control","block 2",22,"2",2769,53,"md_as_19",-0.101172310723585,-0.113995968902725,1.2813756235741
"5618","control","block 2",23,"1",3663,42,"md_as_19",-0.538554789397598,-0.371524165280378,1.2813756235741
"5625","control","block 2",24,"2",3042,37,"md_as_19",-0.737365006976694,-0.113995968902725,1.2813756235741
"5632","control","block 2",25,"2",3976,50,"md_as_19",-0.220458441271043,-0.457366897406262,1.2813756235741
"5640","treatment","block 1",1,"1",2941,80,"md_as_21",0.972402864203538,0.186453593537869,-1.47903462933819
"5647","treatment","block 1",2,"2",4374,31,"md_as_21",-0.975937268071611,0.873195450544942,-1.47903462933819
"5654","treatment","block 1",3,"1",1648,87,"md_as_21",1.25073716881427,0.272296325663754,-1.47903462933819
"5661","treatment","block 1",4,"1",3957,71,"md_as_21",0.614544472561164,1.00195954873377,-1.47903462933819
"5668","treatment","block 1",5,"1",3679,86,"md_as_21",1.21097512529845,1.21656637904848,-1.47903462933819
"5675","treatment","block 1",6,"1",3633,95,"md_as_21",1.56883351694083,1.17364501298554,-1.47903462933819
"5682","treatment","block 1",7,"1",2102,96,"md_as_21",1.60859556045665,1.25948774511142,-1.47903462933819
"5689","treatment","block 1",8,"1",2609,96,"md_as_21",1.60859556045665,1.73162277180378,-1.47903462933819
"5696","treatment","block 1",9,"2",4206,55,"md_as_21",-0.0216482236919461,1.81746550392967,-1.47903462933819
"5703","treatment","block 1",10,"1",2720,82,"md_as_21",1.05192695123518,1.38825184330025,-1.47903462933819
"5710","treatment","block 1",11,"2",2885,52,"md_as_21",-0.140934354239404,1.60285867361496,-1.47903462933819
"5717","treatment","block 1",12,"1",2447,94,"md_as_21",1.52907147342501,1.43117320936319,-1.47903462933819
"5724","treatment","block 1",13,"1",1018,96,"md_as_21",1.60859556045665,1.60285867361496,-1.47903462933819
"5731","treatment","block 1",14,"1",1990,100,"md_as_21",1.76764373451992,1.86038686999261,-1.47903462933819
"5738","treatment","block 1",15,"1",3137,100,"md_as_21",1.76764373451992,1.77454413786673,-1.47903462933819
"5745","treatment","block 1",16,"1",1533,97,"md_as_21",1.64835760397247,1.98915096818144,-1.47903462933819
"5752","treatment","block 1",17,"2",1326,70,"md_as_21",0.574782429045344,1.77454413786673,-1.47903462933819
"5759","treatment","block 1",18,"1",4188,86,"md_as_21",1.21097512529845,1.51701594148907,-1.47903462933819
"5766","treatment","block 1",19,"1",3429,93,"md_as_21",1.48930942990919,1.86038686999261,-1.47903462933819
"5773","treatment","block 1",20,"1",1607,92,"md_as_21",1.44954738639337,1.94622960211849,-1.47903462933819
"5780","treatment","block 1",21,"2",1980,76,"md_as_21",0.81335469014026,2.07499370030732,-1.47903462933819
"5787","treatment","block 1",22,"1",2426,96,"md_as_21",1.60859556045665,1.00195954873377,-1.47903462933819
"5794","treatment","block 1",23,"1",3690,100,"md_as_21",1.76764373451992,1.90330823605555,-1.47903462933819
"5801","treatment","block 1",24,"1",1966,97,"md_as_21",1.64835760397247,1.81746550392967,-1.47903462933819
"5808","treatment","block 1",25,"1",3787,98,"md_as_21",1.68811964748829,1.94622960211849,-1.47903462933819
"5816","treatment","block 2",1,"2",2636,45,"md_as_21",-0.41926865885014,1.38825184330025,-1.47903462933819
"5823","treatment","block 2",2,"1",1530,70,"md_as_21",0.574782429045344,0.959038182670827,-1.47903462933819
"5830","treatment","block 2",3,"2",1820,41,"md_as_21",-0.578316832913417,0.658588620230232,-1.47903462933819
"5837","treatment","block 2",4,"2",2629,36,"md_as_21",-0.777127050492514,0.443981789915522,-1.47903462933819
"5844","treatment","block 2",5,"2",2021,7,"md_as_21",-1.93022631245128,0.100610861411985,-1.47903462933819
"5851","treatment","block 2",6,"2",3411,0,"md_as_21",-2.20856061706201,-0.285681433154493,-1.47903462933819
"5858","treatment","block 2",7,"2",3424,0,"md_as_21",-2.20856061706201,-0.757816459846856,-1.47903462933819
"5865","treatment","block 2",8,"2",3259,0,"md_as_21",-2.20856061706201,-1.6162437811057,-1.47903462933819
"5872","treatment","block 2",9,"1",2537,32,"md_as_21",-0.936175224555791,-2.04545744173512,-1.47903462933819
"5879","treatment","block 2",10,"2",3852,26,"md_as_21",-1.17474748565071,-0.071074602839783,-1.47903462933819
"5886","treatment","block 2",11,"1",2582,49,"md_as_21",-0.260220484786862,-0.543209629532146,-1.47903462933819
"5893","treatment","block 2",12,"2",999,20,"md_as_21",-1.41331974674562,0.229374959600811,-1.47903462933819
"5900","treatment","block 2",13,"2",3376,17,"md_as_21",-1.53260587729308,-0.886580558035682,-1.47903462933819
"5907","treatment","block 2",14,"2",2285,0,"md_as_21",-2.20856061706201,-0.757816459846856,-1.47903462933819
"5914","treatment","block 2",15,"2",2306,7,"md_as_21",-1.93022631245128,-2.04545744173512,-1.47903462933819
"5921","treatment","block 2",16,"2",3351,9,"md_as_21",-1.85070222541964,-1.74500787929452,-1.47903462933819
"5928","treatment","block 2",17,"1",3143,31,"md_as_21",-0.975937268071611,-2.04545744173512,-1.47903462933819
"5935","treatment","block 2",18,"2",1870,22,"md_as_21",-1.33379565971398,-1.18703012047628,-1.47903462933819
"5942","treatment","block 2",19,"2",718,10,"md_as_21",-1.81094018190382,-1.22995148653922,-1.47903462933819
"5949","treatment","block 2",20,"2",2412,15,"md_as_21",-1.61212996432472,-1.91669334354629,-1.47903462933819
"5956","treatment","block 2",21,"1",1850,42,"md_as_21",-0.538554789397598,-1.74500787929452,-1.47903462933819
"5963","treatment","block 2",22,"2",1901,30,"md_as_21",-1.01569931158743,-0.757816459846856,-1.47903462933819
"5970","treatment","block 2",23,"2",1445,5,"md_as_21",-2.00975039948291,-1.18703012047628,-1.47903462933819
"5977","treatment","block 2",24,"2",2416,9,"md_as_21",-1.85070222541964,-1.74500787929452,-1.47903462933819
"5984","treatment","block 2",25,"2",2382,3,"md_as_21",-2.08927448651455,-1.6162437811057,-1.47903462933819
"5992","control","block 1",1,"1",1302,82,"md_as_21",1.05192695123518,0.358139057789638,-1.47903462933819
"5999","control","block 1",2,"2",2243,48,"md_as_21",-0.299982528302682,1.13072364692259,-1.47903462933819
"6006","control","block 1",3,"1",2124,80,"md_as_21",0.972402864203538,0.658588620230232,-1.47903462933819
"6013","control","block 1",4,"2",1952,44,"md_as_21",-0.459030702365959,1.04488091479671,-1.47903462933819
"6020","control","block 1",5,"1",927,64,"md_as_21",0.336210167950428,0.529824522041406,-1.47903462933819
"6027","control","block 1",6,"2",1585,37,"md_as_21",-0.737365006976694,0.61566725416729,-1.47903462933819
"6034","control","block 1",7,"1",2115,61,"md_as_21",0.21692403740297,0.443981789915522,-1.47903462933819
"6041","control","block 1",8,"2",1899,52,"md_as_21",-0.140934354239404,0.873195450544942,-1.47903462933819
"6048","control","block 1",9,"1",2202,62,"md_as_21",0.256686080918789,0.529824522041406,-1.47903462933819
"6055","control","block 1",10,"2",629,40,"md_as_21",-0.618078876429236,0.873195450544942,-1.47903462933819
"6062","control","block 1",11,"1",1060,66,"md_as_21",0.415734254982067,0.143532227474927,-1.47903462933819
"6069","control","block 1",12,"1",2459,78,"md_as_21",0.892878777171899,0.787352718419058,-1.47903462933819
"6076","control","block 1",13,"2",1061,74,"md_as_21",0.733830603108622,1.38825184330025,-1.47903462933819
"6083","control","block 1",14,"2",1747,46,"md_as_21",-0.37950661533432,1.21656637904848,-1.47903462933819
"6090","control","block 1",15,"1",993,74,"md_as_21",0.733830603108622,0.272296325663754,-1.47903462933819
"6097","control","block 1",16,"2",2361,47,"md_as_21",-0.339744571818501,0.959038182670827,-1.47903462933819
"6104","control","block 1",17,"1",1304,74,"md_as_21",0.733830603108622,0.100610861411985,-1.47903462933819
"6111","control","block 1",18,"1",707,90,"md_as_21",1.37002329936173,0.916116816607885,-1.47903462933819
"6118","control","block 1",19,"2",1502,36,"md_as_21",-0.777127050492514,1.25948774511142,-1.47903462933819
"6125","control","block 1",20,"2",2841,26,"md_as_21",-1.17474748565071,0.529824522041406,-1.47903462933819
"6132","control","block 1",21,"1",2381,79,"md_as_21",0.932640820687718,0.787352718419058,-1.47903462933819
"6139","control","block 1",22,"2",1484,54,"md_as_21",-0.0614102672077654,0.916116816607885,-1.47903462933819
"6146","control","block 1",23,"1",1531,71,"md_as_21",0.614544472561164,0.529824522041406,-1.47903462933819
"6153","control","block 1",24,"2",1597,37,"md_as_21",-0.737365006976694,1.00195954873377,-1.47903462933819
"6160","control","block 1",25,"2",1610,49,"md_as_21",-0.260220484786862,0.701509986293174,-1.47903462933819
"6168","control","block 2",1,"1",662,70,"md_as_21",0.574782429045344,0.186453593537869,-1.47903462933819
"6175","control","block 2",2,"2",1803,44,"md_as_21",-0.459030702365959,1.04488091479671,-1.47903462933819
"6182","control","block 2",3,"1",1634,60,"md_as_21",0.177161993887151,0.830274084482,-1.47903462933819
"6189","control","block 2",4,"2",1521,52,"md_as_21",-0.140934354239404,0.787352718419058,-1.47903462933819
"6196","control","block 2",5,"1",2871,73,"md_as_21",0.694068559592802,0.186453593537869,-1.47903462933819
"6203","control","block 2",6,"2",2782,42,"md_as_21",-0.538554789397598,0.658588620230232,-1.47903462933819
"6210","control","block 2",7,"1",897,60,"md_as_21",0.177161993887151,0.229374959600811,-1.47903462933819
"6217","control","block 2",8,"2",650,30,"md_as_21",-1.01569931158743,0.744431352356116,-1.47903462933819
"6224","control","block 2",9,"1",1690,68,"md_as_21",0.495258342013705,-0.457366897406262,-1.47903462933819
"6231","control","block 2",10,"2",1688,46,"md_as_21",-0.37950661533432,0.959038182670827,-1.47903462933819
"6238","control","block 2",11,"1",2940,76,"md_as_21",0.81335469014026,0.0576894953490432,-1.47903462933819
"6245","control","block 2",12,"1",1917,75,"md_as_21",0.773592646624441,0.787352718419058,-1.47903462933819
"6252","control","block 2",13,"1",2702,78,"md_as_21",0.892878777171899,0.959038182670827,-1.47903462933819
"6259","control","block 2",14,"2",1645,39,"md_as_21",-0.657840919945056,1.38825184330025,-1.47903462933819
"6266","control","block 2",15,"1",1860,75,"md_as_21",0.773592646624441,0.658588620230232,-1.47903462933819
"6273","control","block 2",16,"2",636,30,"md_as_21",-1.01569931158743,0.959038182670827,-1.47903462933819
"6280","control","block 2",17,"1",2854,73,"md_as_21",0.694068559592802,-0.199838701028609,-1.47903462933819
"6287","control","block 2",18,"1",944,60,"md_as_21",0.177161993887151,1.38825184330025,-1.47903462933819
"6294","control","block 2",19,"2",1535,26,"md_as_21",-1.17474748565071,0.744431352356116,-1.47903462933819
"6301","control","block 2",20,"2",794,30,"md_as_21",-1.01569931158743,0.272296325663754,-1.47903462933819
"6308","control","block 2",21,"1",668,60,"md_as_21",0.177161993887151,-0.757816459846856,-1.47903462933819
"6315","control","block 2",22,"2",1784,30,"md_as_21",-1.01569931158743,0.61566725416729,-1.47903462933819
"6322","control","block 2",23,"1",1673,84,"md_as_21",1.13145103826682,0.40106042385258,-1.47903462933819
"6329","control","block 2",24,"2",1423,30,"md_as_21",-1.01569931158743,1.51701594148907,-1.47903462933819
"6336","control","block 2",25,"2",1905,39,"md_as_21",-0.657840919945056,0.143532227474927,-1.47903462933819
"6344","treatment","block 1",1,"1",998,96,"md_as_22",1.60859556045665,-1.18703012047628,0.177211522409184
"6351","treatment","block 1",2,"2",2809,45,"md_as_22",-0.41926865885014,0.186453593537869,0.177211522409184
"6358","treatment","block 1",3,"1",3937,83,"md_as_22",1.091688994751,-0.757816459846856,0.177211522409184
"6365","treatment","block 1",4,"1",2793,94,"md_as_22",1.52907147342501,0.315217691726696,0.177211522409184
"6372","treatment","block 1",5,"1",4909,91,"md_as_22",1.40978534287755,0.529824522041406,0.177211522409184
"6379","treatment","block 1",6,"1",3641,96,"md_as_22",1.60859556045665,0.916116816607885,0.177211522409184
"6386","treatment","block 1",7,"1",906,96,"md_as_22",1.60859556045665,1.08780228085965,0.177211522409184
"6393","treatment","block 1",8,"1",2768,93,"md_as_22",1.48930942990919,0.787352718419058,0.177211522409184
"6400","treatment","block 1",9,"2",2855,46,"md_as_22",-0.37950661533432,1.04488091479671,0.177211522409184
"6407","treatment","block 1",10,"1",4586,77,"md_as_22",0.85311673365608,-0.328602799217435,0.177211522409184
"6414","treatment","block 1",11,"2",3946,51,"md_as_22",-0.180696397755224,0.272296325663754,0.177211522409184
"6421","treatment","block 1",12,"1",2538,85,"md_as_22",1.17121308178263,0.0576894953490432,0.177211522409184
"6428","treatment","block 1",13,"1",3342,81,"md_as_22",1.01216490771936,0.443981789915522,0.177211522409184
"6435","treatment","block 1",14,"1",4236,81,"md_as_22",1.01216490771936,1.04488091479671,0.177211522409184
"6442","treatment","block 1",15,"1",3600,72,"md_as_22",0.654306516076983,0.701509986293174,0.177211522409184
"6449","treatment","block 1",16,"1",2798,81,"md_as_22",1.01216490771936,0.873195450544942,0.177211522409184
"6456","treatment","block 1",17,"2",2211,53,"md_as_22",-0.101172310723585,0.443981789915522,0.177211522409184
"6463","treatment","block 1",18,"1",4380,63,"md_as_22",0.296448124434609,-1.6162437811057,0.177211522409184
"6470","treatment","block 1",19,"1",4570,88,"md_as_22",1.29049921233009,0.229374959600811,0.177211522409184
"6477","treatment","block 1",20,"1",1183,85,"md_as_22",1.17121308178263,1.08780228085965,0.177211522409184
"6484","treatment","block 1",21,"2",2952,48,"md_as_22",-0.299982528302682,1.17364501298554,0.177211522409184
"6491","treatment","block 1",22,"1",3498,71,"md_as_22",0.614544472561164,-0.543209629532146,0.177211522409184
"6498","treatment","block 1",23,"1",1224,96,"md_as_22",1.60859556045665,0.916116816607885,0.177211522409184
"6505","treatment","block 1",24,"1",2570,79,"md_as_22",0.932640820687718,1.17364501298554,0.177211522409184
"6512","treatment","block 1",25,"1",4810,89,"md_as_22",1.33026125584591,0.959038182670827,0.177211522409184
"6520","treatment","block 2",1,"2",3019,35,"md_as_22",-0.816889094008333,-0.41444553134332,0.177211522409184
"6527","treatment","block 2",2,"1",4323,75,"md_as_22",0.773592646624441,-0.41444553134332,0.177211522409184
"6534","treatment","block 2",3,"2",2863,52,"md_as_22",-0.140934354239404,0.315217691726696,0.177211522409184
"6541","treatment","block 2",4,"2",3468,37,"md_as_22",-0.737365006976694,-0.199838701028609,0.177211522409184
"6548","treatment","block 2",5,"2",2788,26,"md_as_22",-1.17474748565071,-0.285681433154493,0.177211522409184
"6555","treatment","block 2",6,"2",3250,40,"md_as_22",-0.618078876429236,-0.62905236165803,0.177211522409184
"6562","treatment","block 2",7,"2",2327,30,"md_as_22",-1.01569931158743,-0.586130995595088,0.177211522409184
"6569","treatment","block 2",8,"2",2950,32,"md_as_22",-0.936175224555791,-0.41444553134332,0.177211522409184
"6576","treatment","block 2",9,"1",2543,36,"md_as_22",-0.777127050492514,-0.929501924098624,0.177211522409184
"6583","treatment","block 2",10,"2",2765,40,"md_as_22",-0.618078876429236,0.443981789915522,0.177211522409184
"6590","treatment","block 2",11,"1",3901,66,"md_as_22",0.415734254982067,-0.156917334965667,0.177211522409184
"6597","treatment","block 2",12,"2",2039,31,"md_as_22",-0.975937268071611,-0.071074602839783,0.177211522409184
"6604","treatment","block 2",13,"2",2122,31,"md_as_22",-0.975937268071611,-0.757816459846856,0.177211522409184
"6611","treatment","block 2",14,"2",1995,21,"md_as_22",-1.3735577032298,-0.972423290161566,0.177211522409184
"6618","treatment","block 2",15,"2",5918,43,"md_as_22",-0.498792745881778,-0.972423290161566,0.177211522409184
"6625","treatment","block 2",16,"2",1175,29,"md_as_22",-1.05546135510325,-0.671973727720972,0.177211522409184
"6632","treatment","block 2",17,"1",4610,21,"md_as_22",-1.3735577032298,-0.84365919197274,0.177211522409184
"6639","treatment","block 2",18,"2",1290,11,"md_as_22",-1.771178138388,-1.22995148653922,0.177211522409184
"6646","treatment","block 2",19,"2",4473,20,"md_as_22",-1.41331974674562,-0.800737825909798,0.177211522409184
"6653","treatment","block 2",20,"2",3859,18,"md_as_22",-1.49284383377726,-1.18703012047628,0.177211522409184
"6660","treatment","block 2",21,"1",3623,48,"md_as_22",-0.299982528302682,-1.18703012047628,0.177211522409184
"6667","treatment","block 2",22,"2",2544,28,"md_as_22",-1.09522339861907,-0.071074602839783,0.177211522409184
"6674","treatment","block 2",23,"2",4182,23,"md_as_22",-1.29403361619817,-0.714895093783914,0.177211522409184
"6681","treatment","block 2",24,"2",3126,26,"md_as_22",-1.17474748565071,-1.10118738835039,0.177211522409184
"6688","treatment","block 2",25,"2",4306,13,"md_as_22",-1.69165405135636,-0.800737825909798,0.177211522409184
"6696","control","block 1",1,"1",3124,76,"md_as_22",0.81335469014026,-0.586130995595088,0.177211522409184
"6703","control","block 1",2,"2",2920,58,"md_as_22",0.097637906855512,-0.113995968902725,0.177211522409184
"6710","control","block 1",3,"1",2361,66,"md_as_22",0.415734254982067,-0.285681433154493,0.177211522409184
"6717","control","block 1",4,"2",4502,38,"md_as_22",-0.697602963460875,0.186453593537869,0.177211522409184
"6724","control","block 1",5,"1",1897,67,"md_as_22",0.455496298497886,-1.6162437811057,0.177211522409184
"6731","control","block 1",6,"2",3663,28,"md_as_22",-1.09522339861907,0.229374959600811,0.177211522409184
"6738","control","block 1",7,"1",3025,65,"md_as_22",0.375972211466247,-1.01534465622451,0.177211522409184
"6745","control","block 1",8,"2",1727,34,"md_as_22",-0.856651137524152,0.100610861411985,0.177211522409184
"6752","control","block 1",9,"1",1403,81,"md_as_22",1.01216490771936,-1.6162437811057,0.177211522409184
"6759","control","block 1",10,"2",2492,24,"md_as_22",-1.25427157268235,0.186453593537869,0.177211522409184
"6766","control","block 1",11,"1",2756,71,"md_as_22",0.614544472561164,-0.41444553134332,0.177211522409184
"6773","control","block 1",12,"1",1535,65,"md_as_22",0.375972211466247,0.272296325663754,0.177211522409184
"6780","control","block 1",13,"2",2927,35,"md_as_22",-0.816889094008333,0.272296325663754,0.177211522409184
"6787","control","block 1",14,"2",5735,31,"md_as_22",-0.975937268071611,-0.62905236165803,0.177211522409184
"6794","control","block 1",15,"1",3510,80,"md_as_22",0.972402864203538,-1.27287285260216,0.177211522409184
"6801","control","block 1",16,"2",3360,34,"md_as_22",-0.856651137524152,0.873195450544942,0.177211522409184
"6808","control","block 1",17,"1",2962,42,"md_as_22",-0.538554789397598,-0.156917334965667,0.177211522409184
"6815","control","block 1",18,"1",3175,65,"md_as_22",0.375972211466247,-0.242760067091551,0.177211522409184
"6822","control","block 1",19,"2",3039,47,"md_as_22",-0.339744571818501,-0.371524165280378,0.177211522409184
"6829","control","block 1",20,"2",3016,18,"md_as_22",-1.49284383377726,-0.156917334965667,0.177211522409184
"6836","control","block 1",21,"1",1533,77,"md_as_22",0.85311673365608,-1.01534465622451,0.177211522409184
"6843","control","block 1",22,"2",2403,37,"md_as_22",-0.737365006976694,0.358139057789638,0.177211522409184
"6850","control","block 1",23,"1",2780,62,"md_as_22",0.256686080918789,-0.671973727720972,0.177211522409184
"6857","control","block 1",24,"2",2660,39,"md_as_22",-0.657840919945056,0.40106042385258,0.177211522409184
"6864","control","block 1",25,"2",5476,30,"md_as_22",-1.01569931158743,-0.028153236776841,0.177211522409184
"6872","control","block 2",1,"1",1383,85,"md_as_22",1.17121308178263,-0.586130995595088,0.177211522409184
"6879","control","block 2",2,"2",1380,66,"md_as_22",0.415734254982067,0.0147681292861011,0.177211522409184
"6886","control","block 2",3,"1",2438,64,"md_as_22",0.336210167950428,-0.328602799217435,0.177211522409184
"6893","control","block 2",4,"2",2021,37,"md_as_22",-0.737365006976694,0.0147681292861011,0.177211522409184
"6900","control","block 2",5,"1",3151,52,"md_as_22",-0.140934354239404,-0.543209629532146,0.177211522409184
"6907","control","block 2",6,"2",4183,31,"md_as_22",-0.975937268071611,-0.242760067091551,0.177211522409184
"6914","control","block 2",7,"1",3915,64,"md_as_22",0.336210167950428,-0.328602799217435,0.177211522409184
"6921","control","block 2",8,"2",2486,31,"md_as_22",-0.975937268071611,0.143532227474927,0.177211522409184
"6928","control","block 2",9,"1",2049,54,"md_as_22",-0.0614102672077654,-0.328602799217435,0.177211522409184
"6935","control","block 2",10,"2",2710,36,"md_as_22",-0.777127050492514,-0.757816459846856,0.177211522409184
"6942","control","block 2",11,"1",2840,68,"md_as_22",0.495258342013705,-0.84365919197274,0.177211522409184
"6949","control","block 2",12,"1",4065,73,"md_as_22",0.694068559592802,0.529824522041406,0.177211522409184
"6956","control","block 2",13,"1",5052,73,"md_as_22",0.694068559592802,0.443981789915522,0.177211522409184
"6963","control","block 2",14,"2",3739,30,"md_as_22",-1.01569931158743,0.486903155978464,0.177211522409184
"6970","control","block 2",15,"1",3102,68,"md_as_22",0.495258342013705,-0.457366897406262,0.177211522409184
"6977","control","block 2",16,"2",3031,33,"md_as_22",-0.896413181039972,0.443981789915522,0.177211522409184
"6984","control","block 2",17,"1",4915,80,"md_as_22",0.972402864203538,0.0576894953490432,0.177211522409184
"6991","control","block 2",18,"1",2326,75,"md_as_22",0.773592646624441,0.315217691726696,0.177211522409184
"6998","control","block 2",19,"2",2026,30,"md_as_22",-1.01569931158743,0.744431352356116,0.177211522409184
"7005","control","block 2",20,"2",2791,28,"md_as_22",-1.09522339861907,-0.714895093783914,0.177211522409184
"7012","control","block 2",21,"1",2935,69,"md_as_22",0.535020385529525,-1.18703012047628,0.177211522409184
"7019","control","block 2",22,"2",1966,22,"md_as_22",-1.33379565971398,0.61566725416729,0.177211522409184
"7026","control","block 2",23,"1",2489,75,"md_as_22",0.773592646624441,-0.543209629532146,0.177211522409184
"7033","control","block 2",24,"2",2855,23,"md_as_22",-1.29403361619817,0.443981789915522,0.177211522409184
"7040","control","block 2",25,"2",2689,27,"md_as_22",-1.13498544213489,-0.328602799217435,0.177211522409184
"7048","treatment","block 1",1,"1",3834,80,"md_as_30",0.972402864203538,-1.57332241504276,0.729293572991643
"7055","treatment","block 1",2,"2",4559,18,"md_as_30",-1.49284383377726,-0.328602799217435,0.729293572991643
"7062","treatment","block 1",3,"1",4614,87,"md_as_30",1.25073716881427,-0.113995968902725,0.729293572991643
"7069","treatment","block 1",4,"1",4918,95,"md_as_30",1.56883351694083,0.873195450544942,0.729293572991643
"7076","treatment","block 1",5,"1",466,10,"md_as_30",-1.81094018190382,0.916116816607885,0.729293572991643
"7083","treatment","block 1",6,"1",2816,96,"md_as_30",1.60859556045665,1.17364501298554,0.729293572991643
"7090","treatment","block 1",7,"1",4195,92,"md_as_30",1.44954738639337,1.21656637904848,0.729293572991643
"7097","treatment","block 1",8,"1",2733,100,"md_as_30",1.76764373451992,1.13072364692259,0.729293572991643
"7104","treatment","block 1",9,"2",3225,32,"md_as_30",-0.936175224555791,1.38825184330025,0.729293572991643
"7111","treatment","block 1",10,"1",438,40,"md_as_30",-0.618078876429236,-0.156917334965667,0.729293572991643
"7118","treatment","block 1",11,"2",2919,25,"md_as_30",-1.21450952916653,-0.285681433154493,0.729293572991643
"7125","treatment","block 1",12,"1",2954,64,"md_as_30",0.336210167950428,-0.156917334965667,0.729293572991643
"7132","treatment","block 1",13,"1",2760,89,"md_as_30",1.33026125584591,-0.285681433154493,0.729293572991643
"7139","treatment","block 1",14,"1",4805,93,"md_as_30",1.48930942990919,-0.285681433154493,0.729293572991643
"7146","treatment","block 1",15,"1",2047,93,"md_as_30",1.48930942990919,0.443981789915522,0.729293572991643
"7153","treatment","block 1",16,"1",4198,68,"md_as_30",0.495258342013705,0.701509986293174,0.729293572991643
"7160","treatment","block 1",17,"2",4220,49,"md_as_30",-0.260220484786862,0.873195450544942,0.729293572991643
"7167","treatment","block 1",18,"1",2337,74,"md_as_30",0.733830603108622,1.04488091479671,0.729293572991643
