"","condition","block_no","trial_no","trial_type","rt","emotion_rating","id","EC","PT","sample","closeness"
"1","treatment","block 1",1,"1","3228",-1.54292052819044,"md_as_01",1.71550299631138,21,"behavior",-1.02180054096217
"2","treatment","block 1",2,"2","2052",1.69196487801719,"md_as_01",1.71550299631138,21,"behavior",-0.743357358341985
"3","treatment","block 1",3,"1","5206",-1.2004032498861,"md_as_01",1.71550299631138,21,"behavior",-0.743357358341985
"4","treatment","block 1",4,"1","2223",-1.50486305282329,"md_as_01",1.71550299631138,21,"behavior",-0.975393343858802
"5","treatment","block 1",5,"1","4327",-1.3526331513547,"md_as_01",1.71550299631138,21,"behavior",-0.325692584411715
"6","treatment","block 1",6,"1","4240",-1.3526331513547,"md_as_01",1.71550299631138,21,"behavior",-0.604135767031895
"7","treatment","block 1",7,"1","905",-1.58097800355759,"md_as_01",1.71550299631138,21,"behavior",-1.30024372358234
"8","treatment","block 1",8,"1","2778",-1.46680557745615,"md_as_01",1.71550299631138,21,"behavior",-0.279285387308352
"9","treatment","block 1",9,"2","2301",1.84419477948579,"md_as_01",1.71550299631138,21,"behavior",-0.140063795998262
"10","treatment","block 1",10,"1","4326",-1.2765182006204,"md_as_01",1.71550299631138,21,"behavior",-0.464914175721805
"11","treatment","block 1",11,"2","1545",1.84419477948579,"md_as_01",1.71550299631138,21,"behavior",0.416822569242098
"12","treatment","block 1",12,"1","3615",-1.2765182006204,"md_as_01",1.71550299631138,21,"behavior",-0.000842204688172226
"13","treatment","block 1",13,"1","4870",-1.2765182006204,"md_as_01",1.71550299631138,21,"behavior",0.0455649924151911
"14","treatment","block 1",14,"1","3163",-1.39069062672185,"md_as_01",1.71550299631138,21,"behavior",0.277600977932008
"15","treatment","block 1",15,"1","2401",-1.3526331513547,"md_as_01",1.71550299631138,21,"behavior",0.324008175035371
"16","treatment","block 1",16,"1","3347",-1.12428829915181,"md_as_01",1.71550299631138,21,"behavior",0.277600977932008
"17","treatment","block 1",17,"2","3511",1.38750507508001,"md_as_01",1.71550299631138,21,"behavior",0.0455649924151911
"18","treatment","block 1",18,"1","2543",-1.12428829915181,"md_as_01",1.71550299631138,21,"behavior",-0.000842204688172226
"19","treatment","block 1",19,"1","3194",-0.934000922316064,"md_as_01",1.71550299631138,21,"behavior",0.416822569242098
"20","treatment","block 1",20,"1","3611",-0.667598594746023,"md_as_01",1.71550299631138,21,"behavior",-0.464914175721805
"21","treatment","block 1",21,"2","3249",1.5397349765486,"md_as_01",1.71550299631138,21,"behavior",-0.372099781515079
"22","treatment","block 1",22,"1","3696",-0.781771020847469,"md_as_01",1.71550299631138,21,"behavior",-0.186470993101625
"23","treatment","block 1",23,"1","4822",-1.04817334841751,"md_as_01",1.71550299631138,21,"behavior",-0.650542964135259
"24","treatment","block 1",24,"1","5452",-0.705656070113172,"md_as_01",1.71550299631138,21,"behavior",-0.279285387308352
"25","treatment","block 1",25,"1","4844",-1.3526331513547,"md_as_01",1.71550299631138,21,"behavior",-0.418506978618442
"26","treatment","block 2",1,"2","3385",0.892757895307073,"md_as_01",1.71550299631138,21,"behavior",-0.0472494017915355
"27","treatment","block 2",2,"1","2724",-1.08623082378466,"md_as_01",1.71550299631138,21,"behavior",-0.372099781515079
"28","treatment","block 2",3,"2","3400",1.42556255044715,"md_as_01",1.71550299631138,21,"behavior",-0.0936565988948988
"29","treatment","block 2",4,"2","1624",1.38750507508001,"md_as_01",1.71550299631138,21,"behavior",0.277600977932008
"30","treatment","block 2",5,"2","1689",1.57779245191575,"md_as_01",1.71550299631138,21,"behavior",-0.000842204688172226
"31","treatment","block 2",6,"2","1709",1.80613730411864,"md_as_01",1.71550299631138,21,"behavior",-0.000842204688172226
"32","treatment","block 2",7,"2","4916",1.84419477948579,"md_as_01",1.71550299631138,21,"behavior",0.509636963448824
"33","treatment","block 2",8,"2","3542",1.80613730411864,"md_as_01",1.71550299631138,21,"behavior",0.602451357655551
"34","treatment","block 2",9,"1","1691",-1.04817334841751,"md_as_01",1.71550299631138,21,"behavior",0.370415372138734
"35","treatment","block 2",10,"2","1726",1.6158499272829,"md_as_01",1.71550299631138,21,"behavior",-0.511321372825169
"36","treatment","block 2",11,"1","4364",-1.3526331513547,"md_as_01",1.71550299631138,21,"behavior",0.184786583725281
"37","treatment","block 2",12,"2","1765",1.38750507508001,"md_as_01",1.71550299631138,21,"behavior",-0.0936565988948988
"38","treatment","block 2",13,"2","3925",0.930815370674221,"md_as_01",1.71550299631138,21,"behavior",-0.0936565988948988
"39","treatment","block 2",14,"2","1514",1.27333264897856,"md_as_01",1.71550299631138,21,"behavior",0.138379386621918
"40","treatment","block 2",15,"2","2438",1.38750507508001,"md_as_01",1.71550299631138,21,"behavior",0.184786583725281
"41","treatment","block 2",16,"2","3821",1.19721769824426,"md_as_01",1.71550299631138,21,"behavior",0.0455649924151911
"42","treatment","block 2",17,"1","2814",-0.743713545480321,"md_as_01",1.71550299631138,21,"behavior",-0.186470993101625
"43","treatment","block 2",18,"2","1268",1.12110274750996,"md_as_01",1.71550299631138,21,"behavior",-0.0472494017915355
"44","treatment","block 2",19,"2","3333",1.08304527214282,"md_as_01",1.71550299631138,21,"behavior",0.0919721895185544
"45","treatment","block 2",20,"2","2908",1.12110274750996,"md_as_01",1.71550299631138,21,"behavior",-0.0936565988948988
"46","treatment","block 2",21,"1","1835",-1.23846072525325,"md_as_01",1.71550299631138,21,"behavior",-0.186470993101625
"47","treatment","block 2",22,"2","3713",1.08304527214282,"md_as_01",1.71550299631138,21,"behavior",0.0455649924151911
"48","treatment","block 2",23,"2","1424",1.57779245191575,"md_as_01",1.71550299631138,21,"behavior",0.138379386621918
"49","treatment","block 2",24,"2","2270",1.42556255044715,"md_as_01",1.71550299631138,21,"behavior",0.0919721895185544
"50","treatment","block 2",25,"2","2900",1.12110274750996,"md_as_01",1.71550299631138,21,"behavior",0.0455649924151911
"51","control","block 1",1,"1","1839",-1.39069062672185,"md_as_01",1.71550299631138,21,"behavior",-0.325692584411715
"52","control","block 1",2,"2","3059",1.65390740265005,"md_as_01",1.71550299631138,21,"behavior",-0.232878190204989
"53","control","block 1",3,"1","2439",-0.591483644011726,"md_as_01",1.71550299631138,21,"behavior",0.138379386621918
"54","control","block 1",4,"2","3260",1.08304527214282,"md_as_01",1.71550299631138,21,"behavior",-0.511321372825169
"55","control","block 1",5,"1","2478",-0.667598594746023,"md_as_01",1.71550299631138,21,"behavior",-0.232878190204989
"56","control","block 1",6,"2","4647",1.5397349765486,"md_as_01",1.71550299631138,21,"behavior",-0.140063795998262
"57","control","block 1",7,"1","2880",-0.857885971581767,"md_as_01",1.71550299631138,21,"behavior",-0.0472494017915355
"58","control","block 1",8,"2","2417",1.42556255044715,"md_as_01",1.71550299631138,21,"behavior",0.138379386621918
"59","control","block 1",9,"1","1531",-1.08623082378466,"md_as_01",1.71550299631138,21,"behavior",-0.325692584411715
"60","control","block 1",10,"2","1537",1.4636200258143,"md_as_01",1.71550299631138,21,"behavior",-0.511321372825169
"61","control","block 1",11,"1","2411",-1.2765182006204,"md_as_01",1.71550299631138,21,"behavior",-0.418506978618442
"62","control","block 1",12,"1","1524",-1.16234577451896,"md_as_01",1.71550299631138,21,"behavior",0.370415372138734
"63","control","block 1",13,"2","4286",0.892757895307073,"md_as_01",1.71550299631138,21,"behavior",0.0919721895185544
"64","control","block 1",14,"2","1690",1.38750507508001,"md_as_01",1.71550299631138,21,"behavior",0.184786583725281
"65","control","block 1",15,"1","3898",-1.16234577451896,"md_as_01",1.71550299631138,21,"behavior",-0.0936565988948988
"66","control","block 1",16,"2","1626",1.34944759971286,"md_as_01",1.71550299631138,21,"behavior",-0.140063795998262
"67","control","block 1",17,"1","1888",-1.2765182006204,"md_as_01",1.71550299631138,21,"behavior",-0.232878190204989
"68","control","block 1",18,"1","5368",0.321895764799842,"md_as_01",1.71550299631138,21,"behavior",-0.418506978618442
"69","control","block 1",19,"2","3630",1.19721769824426,"md_as_01",1.71550299631138,21,"behavior",-0.557728569928532
"70","control","block 1",20,"2","3453",1.31139012434571,"md_as_01",1.71550299631138,21,"behavior",-0.0472494017915355
"71","control","block 1",21,"1","1670",-0.972058397683213,"md_as_01",1.71550299631138,21,"behavior",0.231193780828644
"72","control","block 1",22,"2","1392",1.42556255044715,"md_as_01",1.71550299631138,21,"behavior",0.277600977932008
"73","control","block 1",23,"1","4510",-1.23846072525325,"md_as_01",1.71550299631138,21,"behavior",0.184786583725281
"74","control","block 1",24,"2","3569",1.27333264897856,"md_as_01",1.71550299631138,21,"behavior",-0.511321372825169
"75","control","block 1",25,"2","1045",1.57779245191575,"md_as_01",1.71550299631138,21,"behavior",-0.372099781515079
"76","control","block 2",1,"1","2121",-1.04817334841751,"md_as_01",1.71550299631138,21,"behavior",-0.000842204688172226
"77","control","block 2",2,"2","2555",1.19721769824426,"md_as_01",1.71550299631138,21,"behavior",0.416822569242098
"78","control","block 2",3,"1","2373",-1.12428829915181,"md_as_01",1.71550299631138,21,"behavior",-0.279285387308352
"79","control","block 2",4,"2","1400",1.76807982875149,"md_as_01",1.71550299631138,21,"behavior",-0.325692584411715
"80","control","block 2",5,"1","3466",-0.934000922316064,"md_as_01",1.71550299631138,21,"behavior",-0.372099781515079
"81","control","block 2",6,"2","2944",0.854700419939924,"md_as_01",1.71550299631138,21,"behavior",-0.418506978618442
"82","control","block 2",7,"1","3412",-1.23846072525325,"md_as_01",1.71550299631138,21,"behavior",-0.511321372825169
"83","control","block 2",8,"2","3435",1.19721769824426,"md_as_01",1.71550299631138,21,"behavior",-0.0472494017915355
"84","control","block 2",9,"1","3461",-0.934000922316064,"md_as_01",1.71550299631138,21,"behavior",-0.186470993101625
"85","control","block 2",10,"2","1230",1.5397349765486,"md_as_01",1.71550299631138,21,"behavior",-0.0936565988948988
"86","control","block 2",11,"1","1141",-1.46680557745615,"md_as_01",1.71550299631138,21,"behavior",0.0919721895185544
"87","control","block 2",12,"1","2535",0.854700419939924,"md_as_01",1.71550299631138,21,"behavior",0.416822569242098
"88","control","block 2",13,"1","3347",-0.972058397683213,"md_as_01",1.71550299631138,21,"behavior",-0.0472494017915355
"89","control","block 2",14,"2","3302",1.15916022287711,"md_as_01",1.71550299631138,21,"behavior",-0.000842204688172226
"90","control","block 2",15,"1","4532",-1.2004032498861,"md_as_01",1.71550299631138,21,"behavior",-0.186470993101625
"91","control","block 2",16,"2","2500",1.23527517361141,"md_as_01",1.71550299631138,21,"behavior",-0.186470993101625
"92","control","block 2",17,"1","3539",-1.12428829915181,"md_as_01",1.71550299631138,21,"behavior",-0.0472494017915355
"93","control","block 2",18,"1","2922",-0.857885971581767,"md_as_01",1.71550299631138,21,"behavior",-0.279285387308352
"94","control","block 2",19,"2","1870",1.5397349765486,"md_as_01",1.71550299631138,21,"behavior",0.556044160552188
"95","control","block 2",20,"2","1214",1.5397349765486,"md_as_01",1.71550299631138,21,"behavior",-0.232878190204989
"96","control","block 2",21,"1","1598",-1.2765182006204,"md_as_01",1.71550299631138,21,"behavior",-0.140063795998262
"97","control","block 2",22,"2","5091",0.930815370674221,"md_as_01",1.71550299631138,21,"behavior",0.324008175035371
"98","control","block 2",23,"1","1915",-1.428748102089,"md_as_01",1.71550299631138,21,"behavior",0.324008175035371
"99","control","block 2",24,"2","1281",1.73002235338434,"md_as_01",1.71550299631138,21,"behavior",-0.279285387308352
"100","control","block 2",25,"2","3495",1.19721769824426,"md_as_01",1.71550299631138,21,"behavior",-0.0936565988948988
"101","control","block 1",1,"1","1138",-0.934000922316064,"md_as_02",-0.498189001454062,16,"behavior",-0.0936565988948988
"102","control","block 1",2,"2","3766",0.131608387964099,"md_as_02",-0.498189001454062,16,"behavior",0.324008175035371
"103","control","block 1",3,"1","3567",-0.895943446948915,"md_as_02",-0.498189001454062,16,"behavior",0.370415372138734
"104","control","block 1",4,"2","4922",-0.0206215135044958,"md_as_02",-0.498189001454062,16,"behavior",0.602451357655551
"105","control","block 1",5,"1","3349",-1.01011587305036,"md_as_02",-0.498189001454062,16,"behavior",0.509636963448824
"106","control","block 1",6,"2","5237",0.131608387964099,"md_as_02",-0.498189001454062,16,"behavior",0.277600977932008
"107","control","block 1",7,"1","3145",-0.705656070113172,"md_as_02",-0.498189001454062,16,"behavior",0.695265751862277
"108","control","block 1",8,"2","3001",-0.287023841074536,"md_as_02",-0.498189001454062,16,"behavior",0.324008175035371
"109","control","block 1",9,"1","2716",-0.934000922316064,"md_as_02",-0.498189001454062,16,"behavior",0.370415372138734
"110","control","block 1",10,"2","3552",-0.0586789888716444,"md_as_02",-0.498189001454062,16,"behavior",0.509636963448824
"111","control","block 1",11,"1","3863",-1.16234577451896,"md_as_02",-0.498189001454062,16,"behavior",0.602451357655551
"112","control","block 1",12,"1","3521",-1.08623082378466,"md_as_02",-0.498189001454062,16,"behavior",0.602451357655551
"113","control","block 1",13,"2","497",-1.58097800355759,"md_as_02",-0.498189001454062,16,"behavior",0.556044160552188
"114","control","block 1",14,"2","2803",-0.819828496214618,"md_as_02",-0.498189001454062,16,"behavior",0.973708934482457
"115","control","block 1",15,"1","3587",-1.04817334841751,"md_as_02",-0.498189001454062,16,"behavior",0.880894540275731
"116","control","block 1",16,"2","2417",-0.781771020847469,"md_as_02",-0.498189001454062,16,"behavior",0.695265751862277
"117","control","block 1",17,"1","4402",-1.08623082378466,"md_as_02",-0.498189001454062,16,"behavior",0.602451357655551
"118","control","block 1",18,"1","3772",-1.50486305282329,"md_as_02",-0.498189001454062,16,"behavior",0.834487343172367
"119","control","block 1",19,"2","2700",-0.667598594746023,"md_as_02",-0.498189001454062,16,"behavior",1.39137370841273
"120","control","block 1",20,"2","2231",-0.781771020847469,"md_as_02",-0.498189001454062,16,"behavior",1.34496651130936
"121","control","block 1",21,"1","3668",-1.23846072525325,"md_as_02",-0.498189001454062,16,"behavior",0.741672948965641
"122","control","block 1",22,"2","3570",-1.16234577451896,"md_as_02",-0.498189001454062,16,"behavior",0.880894540275731
"123","control","block 1",23,"1","2049",-1.2004032498861,"md_as_02",-0.498189001454062,16,"behavior",0.927301737379094
"124","control","block 1",24,"2","5439",-1.01011587305036,"md_as_02",-0.498189001454062,16,"behavior",1.11293052579255
"125","control","block 1",25,"2","2362",-0.667598594746023,"md_as_02",-0.498189001454062,16,"behavior",1.06652332868918
"126","control","block 2",1,"1","3116",-0.47731121791028,"md_as_02",-0.498189001454062,16,"behavior",0.184786583725281
"127","control","block 2",2,"2","4384",-0.363138791808834,"md_as_02",-0.498189001454062,16,"behavior",0.695265751862277
"128","control","block 2",3,"1","3636",-0.743713545480321,"md_as_02",-0.498189001454062,16,"behavior",0.184786583725281
"129","control","block 2",4,"2","3179",-0.743713545480321,"md_as_02",-0.498189001454062,16,"behavior",0.648858554758914
"130","control","block 2",5,"1","3133",-1.2765182006204,"md_as_02",-0.498189001454062,16,"behavior",0.788080146069004
"131","control","block 2",6,"2","4136",-0.819828496214618,"md_as_02",-0.498189001454062,16,"behavior",1.25215211710264
"132","control","block 2",7,"1","3576",-1.04817334841751,"md_as_02",-0.498189001454062,16,"behavior",0.788080146069004
"133","control","block 2",8,"2","3903",-0.781771020847469,"md_as_02",-0.498189001454062,16,"behavior",0.973708934482457
"134","control","block 2",9,"1","3520",-0.972058397683213,"md_as_02",-0.498189001454062,16,"behavior",0.370415372138734
"135","control","block 2",10,"2","4255",-1.01011587305036,"md_as_02",-0.498189001454062,16,"behavior",0.927301737379094
"136","control","block 2",11,"1","4346",-1.23846072525325,"md_as_02",-0.498189001454062,16,"behavior",1.20574491999927
"137","control","block 2",12,"1","2924",-1.2765182006204,"md_as_02",-0.498189001454062,16,"behavior",0.927301737379094
"138","control","block 2",13,"1","3733",-1.23846072525325,"md_as_02",-0.498189001454062,16,"behavior",0.973708934482457
"139","control","block 2",14,"2","4163",-0.553426168644577,"md_as_02",-0.498189001454062,16,"behavior",1.25215211710264
"140","control","block 2",15,"1","4512",-1.12428829915181,"md_as_02",-0.498189001454062,16,"behavior",0.416822569242098
"141","control","block 2",16,"2","2460",-0.553426168644577,"md_as_02",-0.498189001454062,16,"behavior",0.927301737379094
"142","control","block 2",17,"1","3864",-0.972058397683213,"md_as_02",-0.498189001454062,16,"behavior",0.416822569242098
"143","control","block 2",18,"1","5049",-1.2765182006204,"md_as_02",-0.498189001454062,16,"behavior",1.06652332868918
"144","control","block 2",19,"2","2578",-0.553426168644577,"md_as_02",-0.498189001454062,16,"behavior",1.25215211710264
"145","control","block 2",20,"2","4093",-0.47731121791028,"md_as_02",-0.498189001454062,16,"behavior",0.463229766345461
"146","control","block 2",21,"1","4091",-0.781771020847469,"md_as_02",-0.498189001454062,16,"behavior",0.463229766345461
"147","control","block 2",22,"2","4284",-0.629541119378875,"md_as_02",-0.498189001454062,16,"behavior",0.556044160552188
"148","control","block 2",23,"1","3471",-1.08623082378466,"md_as_02",-0.498189001454062,16,"behavior",0.416822569242098
"149","control","block 2",24,"2","3410",-0.553426168644577,"md_as_02",-0.498189001454062,16,"behavior",1.02011613158582
"150","control","block 2",25,"2","4248",-0.895943446948915,"md_as_02",-0.498189001454062,16,"behavior",0.324008175035371
"151","treatment","block 1",1,"1","3600",-0.857885971581767,"md_as_02",-0.498189001454062,16,"behavior",-0.000842204688172226
"152","treatment","block 1",2,"2","3719",-0.0586789888716444,"md_as_02",-0.498189001454062,16,"behavior",0.324008175035371
"153","treatment","block 1",3,"1","3806",-0.515368693277429,"md_as_02",-0.498189001454062,16,"behavior",0.0455649924151911
"154","treatment","block 1",4,"1","2441",-0.819828496214618,"md_as_02",-0.498189001454062,16,"behavior",0.509636963448824
"155","treatment","block 1",5,"1","4033",-0.819828496214618,"md_as_02",-0.498189001454062,16,"behavior",0.602451357655551
"156","treatment","block 1",6,"1","3658",-1.01011587305036,"md_as_02",-0.498189001454062,16,"behavior",0.602451357655551
"157","treatment","block 1",7,"1","3297",-0.972058397683213,"md_as_02",-0.498189001454062,16,"behavior",0.556044160552188
"158","treatment","block 1",8,"1","3333",-1.08623082378466,"md_as_02",-0.498189001454062,16,"behavior",0.695265751862277
"159","treatment","block 1",9,"2","1967",-0.553426168644577,"md_as_02",-0.498189001454062,16,"behavior",1.02011613158582
"160","treatment","block 1",10,"1","3779",-0.743713545480321,"md_as_02",-0.498189001454062,16,"behavior",0.556044160552188
"161","treatment","block 1",11,"2","3355",-0.743713545480321,"md_as_02",-0.498189001454062,16,"behavior",0.927301737379094
"162","treatment","block 1",12,"1","4738",-0.972058397683213,"md_as_02",-0.498189001454062,16,"behavior",0.648858554758914
"163","treatment","block 1",13,"1","3783",-0.972058397683213,"md_as_02",-0.498189001454062,16,"behavior",0.880894540275731
"164","treatment","block 1",14,"1","2286",-1.16234577451896,"md_as_02",-0.498189001454062,16,"behavior",1.11293052579255
"165","treatment","block 1",15,"1","2267",-1.2765182006204,"md_as_02",-0.498189001454062,16,"behavior",1.11293052579255
"166","treatment","block 1",16,"1","4404",-1.3526331513547,"md_as_02",-0.498189001454062,16,"behavior",1.15933772289591
"167","treatment","block 1",17,"2","2994",-0.857885971581767,"md_as_02",-0.498189001454062,16,"behavior",1.15933772289591
"168","treatment","block 1",18,"1","2891",-0.705656070113172,"md_as_02",-0.498189001454062,16,"behavior",0.602451357655551
"169","treatment","block 1",19,"1","1374",-1.31457567598755,"md_as_02",-0.498189001454062,16,"behavior",0.324008175035371
"170","treatment","block 1",20,"1","3513",-1.08623082378466,"md_as_02",-0.498189001454062,16,"behavior",0.880894540275731
"171","treatment","block 1",21,"2","2306",-0.972058397683213,"md_as_02",-0.498189001454062,16,"behavior",0.927301737379094
"172","treatment","block 1",22,"1","3258",-1.04817334841751,"md_as_02",-0.498189001454062,16,"behavior",0.648858554758914
"173","treatment","block 1",23,"1","3153",-1.04817334841751,"md_as_02",-0.498189001454062,16,"behavior",0.648858554758914
"174","treatment","block 1",24,"1","4454",-0.972058397683213,"md_as_02",-0.498189001454062,16,"behavior",0.695265751862277
"175","treatment","block 1",25,"1","2106",-1.31457567598755,"md_as_02",-0.498189001454062,16,"behavior",1.02011613158582
"176","treatment","block 2",1,"2","4584",-0.0206215135044958,"md_as_02",-0.498189001454062,16,"behavior",0.138379386621918
"177","treatment","block 2",2,"1","3757",-0.591483644011726,"md_as_02",-0.498189001454062,16,"behavior",-0.0936565988948988
"178","treatment","block 2",3,"2","3786",-0.363138791808834,"md_as_02",-0.498189001454062,16,"behavior",0.509636963448824
"179","treatment","block 2",4,"2","1928",0.0174359618626529,"md_as_02",-0.498189001454062,16,"behavior",0.277600977932008
"180","treatment","block 2",5,"2","2277",0.169665863331248,"md_as_02",-0.498189001454062,16,"behavior",-0.000842204688172226
"181","treatment","block 2",6,"2","3164",0.169665863331248,"md_as_02",-0.498189001454062,16,"behavior",0.0919721895185544
"182","treatment","block 2",7,"2","2865",0.131608387964099,"md_as_02",-0.498189001454062,16,"behavior",0.184786583725281
"183","treatment","block 2",8,"2","1988",0.283838289432694,"md_as_02",-0.498189001454062,16,"behavior",0.0455649924151911
"184","treatment","block 2",9,"1","3597",-0.363138791808834,"md_as_02",-0.498189001454062,16,"behavior",-0.000842204688172226
"185","treatment","block 2",10,"2","3779",-0.363138791808834,"md_as_02",-0.498189001454062,16,"behavior",0.602451357655551
"186","treatment","block 2",11,"1","3434",-0.591483644011726,"md_as_02",-0.498189001454062,16,"behavior",0.370415372138734
"187","treatment","block 2",12,"2","2363",-0.134793939605942,"md_as_02",-0.498189001454062,16,"behavior",0.741672948965641
"188","treatment","block 2",13,"2","3637",-0.0206215135044958,"md_as_02",-0.498189001454062,16,"behavior",0.648858554758914
"189","treatment","block 2",14,"2","1438",-0.17285141497309,"md_as_02",-0.498189001454062,16,"behavior",0.231193780828644
"190","treatment","block 2",15,"2","3713",0.131608387964099,"md_as_02",-0.498189001454062,16,"behavior",0.277600977932008
"191","treatment","block 2",16,"2","3357",0.0935509125969503,"md_as_02",-0.498189001454062,16,"behavior",0.0919721895185544
"192","treatment","block 2",17,"1","2607",-0.363138791808834,"md_as_02",-0.498189001454062,16,"behavior",0.463229766345461
"193","treatment","block 2",18,"2","3746",-0.401196267175983,"md_as_02",-0.498189001454062,16,"behavior",0.788080146069004
"194","treatment","block 2",19,"2","2579",-0.439253742543131,"md_as_02",-0.498189001454062,16,"behavior",0.556044160552188
"195","treatment","block 2",20,"2","2333",-0.287023841074536,"md_as_02",-0.498189001454062,16,"behavior",0.184786583725281
"196","treatment","block 2",21,"1","2914",-0.591483644011726,"md_as_02",-0.498189001454062,16,"behavior",0.556044160552188
"197","treatment","block 2",22,"2","2373",-0.248966365707388,"md_as_02",-0.498189001454062,16,"behavior",0.695265751862277
"198","treatment","block 2",23,"2","2202",-0.401196267175983,"md_as_02",-0.498189001454062,16,"behavior",0.556044160552188
"199","treatment","block 2",24,"2","2746",-0.210908890340239,"md_as_02",-0.498189001454062,16,"behavior",0.370415372138734
"200","treatment","block 2",25,"2","4193",-0.667598594746023,"md_as_02",-0.498189001454062,16,"behavior",0.509636963448824
"201","control","block 1",1,"1","4014",-0.781771020847469,"md_as_04",-0.498189001454062,19,"behavior",-1.20742932937562
"202","control","block 1",2,"2","3048",-0.439253742543131,"md_as_04",-0.498189001454062,19,"behavior",-1.25383652647898
"203","control","block 1",3,"1","1703",-0.819828496214618,"md_as_04",-0.498189001454062,19,"behavior",-0.928986146755438
"204","control","block 1",4,"2","4771",-1.01011587305036,"md_as_04",-0.498189001454062,19,"behavior",-1.39305811778907
"205","control","block 1",5,"1","3063",-0.781771020847469,"md_as_04",-0.498189001454062,19,"behavior",-1.30024372358234
"206","control","block 1",6,"2","1977",-0.781771020847469,"md_as_04",-0.498189001454062,19,"behavior",-1.34665092068571
"207","control","block 1",7,"1","845",-1.31457567598755,"md_as_04",-0.498189001454062,19,"behavior",-1.16102213227225
"208","control","block 1",8,"2","3138",-0.705656070113172,"md_as_04",-0.498189001454062,19,"behavior",-1.34665092068571
"209","control","block 1",9,"1","4726",-0.629541119378875,"md_as_04",-0.498189001454062,19,"behavior",-1.20742932937562
"210","control","block 1",10,"2","3948",-0.781771020847469,"md_as_04",-0.498189001454062,19,"behavior",-1.39305811778907
"211","control","block 1",11,"1","4611",-0.629541119378875,"md_as_04",-0.498189001454062,19,"behavior",-1.25383652647898
"212","control","block 1",12,"1","3893",-0.439253742543131,"md_as_04",-0.498189001454062,19,"behavior",-0.975393343858802
"213","control","block 1",13,"2","1785",-0.591483644011726,"md_as_04",-0.498189001454062,19,"behavior",-0.882578949652075
"214","control","block 1",14,"2","2301",-0.743713545480321,"md_as_04",-0.498189001454062,19,"behavior",-0.975393343858802
"215","control","block 1",15,"1","3271",-0.743713545480321,"md_as_04",-0.498189001454062,19,"behavior",-1.16102213227225
"216","control","block 1",16,"2","3189",-0.857885971581767,"md_as_04",-0.498189001454062,19,"behavior",-1.06820773806553
"217","control","block 1",17,"1","3080",-0.591483644011726,"md_as_04",-0.498189001454062,19,"behavior",-1.20742932937562
"218","control","block 1",18,"1","2538",-0.47731121791028,"md_as_04",-0.498189001454062,19,"behavior",-1.25383652647898
"219","control","block 1",19,"2","2434",-0.705656070113172,"md_as_04",-0.498189001454062,19,"behavior",-0.928986146755438
"220","control","block 1",20,"2","5363",-0.47731121791028,"md_as_04",-0.498189001454062,19,"behavior",-1.06820773806553
"221","control","block 1",21,"1","3559",-0.743713545480321,"md_as_04",-0.498189001454062,19,"behavior",-1.06820773806553
"222","control","block 1",22,"2","3366",-0.705656070113172,"md_as_04",-0.498189001454062,19,"behavior",-1.11461493516889
"223","control","block 1",23,"1","3825",-0.553426168644577,"md_as_04",-0.498189001454062,19,"behavior",-1.02180054096217
"224","control","block 1",24,"2","4339",-0.439253742543131,"md_as_04",-0.498189001454062,19,"behavior",-0.882578949652075
"225","control","block 1",25,"2","2534",-0.553426168644577,"md_as_04",-0.498189001454062,19,"behavior",-1.06820773806553
"226","control","block 2",1,"1","3047",-0.363138791808834,"md_as_04",-0.498189001454062,19,"behavior",-0.650542964135259
"227","control","block 2",2,"2","3393",-0.47731121791028,"md_as_04",-0.498189001454062,19,"behavior",-0.789764555445349
"228","control","block 2",3,"1","3914",-0.591483644011726,"md_as_04",-0.498189001454062,19,"behavior",-0.604135767031895
"229","control","block 2",4,"2","3554",-0.553426168644577,"md_as_04",-0.498189001454062,19,"behavior",-0.789764555445349
"230","control","block 2",5,"1","4114",-0.515368693277429,"md_as_04",-0.498189001454062,19,"behavior",-0.928986146755438
"231","control","block 2",6,"2","3391",-0.515368693277429,"md_as_04",-0.498189001454062,19,"behavior",-0.604135767031895
"232","control","block 2",7,"1","3038",-0.629541119378875,"md_as_04",-0.498189001454062,19,"behavior",-0.696950161238622
"233","control","block 2",8,"2","1535",-0.363138791808834,"md_as_04",-0.498189001454062,19,"behavior",-0.650542964135259
"234","control","block 2",9,"1","4047",-0.47731121791028,"md_as_04",-0.498189001454062,19,"behavior",-0.836171752548712
"235","control","block 2",10,"2","2606",-0.47731121791028,"md_as_04",-0.498189001454062,19,"behavior",-0.696950161238622
"236","control","block 2",11,"1","2628",-0.401196267175983,"md_as_04",-0.498189001454062,19,"behavior",-0.836171752548712
"237","control","block 2",12,"1","3779",-0.325081316441685,"md_as_04",-0.498189001454062,19,"behavior",-0.789764555445349
"238","control","block 2",13,"1","902",-0.553426168644577,"md_as_04",-0.498189001454062,19,"behavior",-0.882578949652075
"239","control","block 2",14,"2","3398",-0.325081316441685,"md_as_04",-0.498189001454062,19,"behavior",-0.557728569928532
"240","control","block 2",15,"1","3267",-0.325081316441685,"md_as_04",-0.498189001454062,19,"behavior",-0.882578949652075
"241","control","block 2",16,"2","2800",-0.439253742543131,"md_as_04",-0.498189001454062,19,"behavior",-0.836171752548712
"242","control","block 2",17,"1","3178",-0.17285141497309,"md_as_04",-0.498189001454062,19,"behavior",-0.836171752548712
"243","control","block 2",18,"1","2120",-0.439253742543131,"md_as_04",-0.498189001454062,19,"behavior",-0.928986146755438
"244","control","block 2",19,"2","2417",-0.401196267175983,"md_as_04",-0.498189001454062,19,"behavior",-0.882578949652075
"245","control","block 2",20,"2","3050",-0.287023841074536,"md_as_04",-0.498189001454062,19,"behavior",-0.789764555445349
"246","control","block 2",21,"1","1826",-0.401196267175983,"md_as_04",-0.498189001454062,19,"behavior",-0.557728569928532
"247","control","block 2",22,"2","2096",-0.439253742543131,"md_as_04",-0.498189001454062,19,"behavior",-0.604135767031895
"248","control","block 2",23,"1","1408",-0.17285141497309,"md_as_04",-0.498189001454062,19,"behavior",-0.557728569928532
"249","control","block 2",24,"2","2542",-0.515368693277429,"md_as_04",-0.498189001454062,19,"behavior",-0.372099781515079
"250","control","block 2",25,"2","3031",-0.591483644011726,"md_as_04",-0.498189001454062,19,"behavior",-0.836171752548712
"251","treatment","block 1",1,"1","2344",-0.895943446948915,"md_as_04",-0.498189001454062,19,"behavior",-1.39305811778907
"252","treatment","block 1",2,"2","4432",-0.857885971581767,"md_as_04",-0.498189001454062,19,"behavior",-1.11461493516889
"253","treatment","block 1",3,"1","1995",-0.515368693277429,"md_as_04",-0.498189001454062,19,"behavior",-0.789764555445349
"254","treatment","block 1",4,"1","1696",-0.743713545480321,"md_as_04",-0.498189001454062,19,"behavior",-0.928986146755438
"255","treatment","block 1",5,"1","3070",-0.705656070113172,"md_as_04",-0.498189001454062,19,"behavior",-1.02180054096217
"256","treatment","block 1",6,"1","1758",-0.667598594746023,"md_as_04",-0.498189001454062,19,"behavior",-0.836171752548712
"257","treatment","block 1",7,"1","1664",-0.591483644011726,"md_as_04",-0.498189001454062,19,"behavior",-0.836171752548712
"258","treatment","block 1",8,"1","3286",-0.515368693277429,"md_as_04",-0.498189001454062,19,"behavior",-1.06820773806553
"259","treatment","block 1",9,"2","2801",-0.515368693277429,"md_as_04",-0.498189001454062,19,"behavior",-1.02180054096217
"260","treatment","block 1",10,"1","3017",-0.553426168644577,"md_as_04",-0.498189001454062,19,"behavior",-0.789764555445349
"261","treatment","block 1",11,"2","1518",-0.591483644011726,"md_as_04",-0.498189001454062,19,"behavior",-0.836171752548712
"262","treatment","block 1",12,"1","3459",-0.439253742543131,"md_as_04",-0.498189001454062,19,"behavior",-0.975393343858802
"263","treatment","block 1",13,"1","2727",-0.591483644011726,"md_as_04",-0.498189001454062,19,"behavior",-0.789764555445349
"264","treatment","block 1",14,"1","3726",-0.629541119378875,"md_as_04",-0.498189001454062,19,"behavior",-0.743357358341985
"265","treatment","block 1",15,"1","2013",-0.591483644011726,"md_as_04",-0.498189001454062,19,"behavior",-0.882578949652075
"266","treatment","block 1",16,"1","3453",-0.401196267175983,"md_as_04",-0.498189001454062,19,"behavior",-0.836171752548712
"267","treatment","block 1",17,"2","3966",-0.47731121791028,"md_as_04",-0.498189001454062,19,"behavior",-0.836171752548712
"268","treatment","block 1",18,"1","2619",-0.47731121791028,"md_as_04",-0.498189001454062,19,"behavior",-0.928986146755438
"269","treatment","block 1",19,"1","710",-1.31457567598755,"md_as_04",-0.498189001454062,19,"behavior",-0.789764555445349
"270","treatment","block 1",20,"1","2833",-0.553426168644577,"md_as_04",-0.498189001454062,19,"behavior",-0.789764555445349
"271","treatment","block 1",21,"2","2711",-0.325081316441685,"md_as_04",-0.498189001454062,19,"behavior",-0.882578949652075
"272","treatment","block 1",22,"1","3138",-0.743713545480321,"md_as_04",-0.498189001454062,19,"behavior",-0.650542964135259
"273","treatment","block 1",23,"1","3353",-0.439253742543131,"md_as_04",-0.498189001454062,19,"behavior",-0.836171752548712
"274","treatment","block 1",24,"1","1910",-0.17285141497309,"md_as_04",-0.498189001454062,19,"behavior",-1.06820773806553
"275","treatment","block 1",25,"1","3816",-0.591483644011726,"md_as_04",-0.498189001454062,19,"behavior",-0.836171752548712
"276","treatment","block 2",1,"2","3084",-0.287023841074536,"md_as_04",-0.498189001454062,19,"behavior",-0.836171752548712
"277","treatment","block 2",2,"1","1983",-0.401196267175983,"md_as_04",-0.498189001454062,19,"behavior",-0.882578949652075
"278","treatment","block 2",3,"2","3064",-0.47731121791028,"md_as_04",-0.498189001454062,19,"behavior",-0.836171752548712
"279","treatment","block 2",4,"2","1447",-0.401196267175983,"md_as_04",-0.498189001454062,19,"behavior",-0.836171752548712
"280","treatment","block 2",5,"2","2351",-0.363138791808834,"md_as_04",-0.498189001454062,19,"behavior",-0.743357358341985
"281","treatment","block 2",6,"2","2747",-0.47731121791028,"md_as_04",-0.498189001454062,19,"behavior",-1.02180054096217
"282","treatment","block 2",7,"2","3919",-0.287023841074536,"md_as_04",-0.498189001454062,19,"behavior",-0.928986146755438
"283","treatment","block 2",8,"2","3290",-0.363138791808834,"md_as_04",-0.498189001454062,19,"behavior",-0.372099781515079
"284","treatment","block 2",9,"1","1699",-0.401196267175983,"md_as_04",-0.498189001454062,19,"behavior",-0.836171752548712
"285","treatment","block 2",10,"2","3379",-0.401196267175983,"md_as_04",-0.498189001454062,19,"behavior",-0.696950161238622
"286","treatment","block 2",11,"1","1899",-0.325081316441685,"md_as_04",-0.498189001454062,19,"behavior",-0.836171752548712
"287","treatment","block 2",12,"2","2256",-0.401196267175983,"md_as_04",-0.498189001454062,19,"behavior",-0.836171752548712
"288","treatment","block 2",13,"2","3457",-0.363138791808834,"md_as_04",-0.498189001454062,19,"behavior",-0.836171752548712
"289","treatment","block 2",14,"2","2290",-0.439253742543131,"md_as_04",-0.498189001454062,19,"behavior",-0.836171752548712
"290","treatment","block 2",15,"2","2845",-0.363138791808834,"md_as_04",-0.498189001454062,19,"behavior",-0.650542964135259
"291","treatment","block 2",16,"2","1846",-0.248966365707388,"md_as_04",-0.498189001454062,19,"behavior",-0.511321372825169
"292","treatment","block 2",17,"1","779",-0.934000922316064,"md_as_04",-0.498189001454062,19,"behavior",-0.836171752548712
"293","treatment","block 2",18,"2","3329",-0.515368693277429,"md_as_04",-0.498189001454062,19,"behavior",-0.836171752548712
"294","treatment","block 2",19,"2","2699",-0.439253742543131,"md_as_04",-0.498189001454062,19,"behavior",-0.836171752548712
"295","treatment","block 2",20,"2","3158",-0.439253742543131,"md_as_04",-0.498189001454062,19,"behavior",-0.511321372825169
"296","treatment","block 2",21,"1","1394",-0.553426168644577,"md_as_04",-0.498189001454062,19,"behavior",-0.650542964135259
"297","treatment","block 2",22,"2","1348",-0.17285141497309,"md_as_04",-0.498189001454062,19,"behavior",-0.789764555445349
"298","treatment","block 2",23,"2","1890",-0.325081316441685,"md_as_04",-0.498189001454062,19,"behavior",-0.325692584411715
"299","treatment","block 2",24,"2","3262",-0.629541119378875,"md_as_04",-0.498189001454062,19,"behavior",-0.557728569928532
"300","treatment","block 2",25,"2","2705",-0.17285141497309,"md_as_04",-0.498189001454062,19,"behavior",-0.372099781515079
"301","treatment","block 1",1,"1","2327",-0.819828496214618,"md_as_05",1.0830195683784,21,"behavior",-1.53227970909916
"302","treatment","block 1",2,"2","3176",-0.705656070113172,"md_as_05",1.0830195683784,21,"behavior",-0.696950161238622
"303","treatment","block 1",3,"1","3529",-1.12428829915181,"md_as_05",1.0830195683784,21,"behavior",-0.650542964135259
"304","treatment","block 1",4,"1","3025",-1.16234577451896,"md_as_05",1.0830195683784,21,"behavior",-1.02180054096217
"305","treatment","block 1",5,"1","2078",-0.934000922316064,"md_as_05",1.0830195683784,21,"behavior",-0.650542964135259
"306","treatment","block 1",6,"1","2728",-1.01011587305036,"md_as_05",1.0830195683784,21,"behavior",-0.511321372825169
"307","treatment","block 1",7,"1","5321",-0.553426168644577,"md_as_05",1.0830195683784,21,"behavior",-0.140063795998262
"308","treatment","block 1",8,"1","5144",-0.17285141497309,"md_as_05",1.0830195683784,21,"behavior",-0.325692584411715
"309","treatment","block 1",9,"2","3321",0.207723338698396,"md_as_05",1.0830195683784,21,"behavior",-0.743357358341985
"310","treatment","block 1",10,"1","2059",-1.08623082378466,"md_as_05",1.0830195683784,21,"behavior",-1.67150130040925
"311","treatment","block 1",11,"2","3840",0.245780814065545,"md_as_05",1.0830195683784,21,"behavior",0.741672948965641
"312","treatment","block 1",12,"1","3732",0.321895764799842,"md_as_05",1.0830195683784,21,"behavior",-1.02180054096217
"313","treatment","block 1",13,"1","3440",-0.325081316441685,"md_as_05",1.0830195683784,21,"behavior",-0.696950161238622
"314","treatment","block 1",14,"1","3289",-0.287023841074536,"md_as_05",1.0830195683784,21,"behavior",0.741672948965641
"315","treatment","block 1",15,"1","2860",-0.819828496214618,"md_as_05",1.0830195683784,21,"behavior",0.138379386621918
"316","treatment","block 1",16,"1","2533",-1.46680557745615,"md_as_05",1.0830195683784,21,"behavior",1.298559314206
"317","treatment","block 1",17,"2","2269",0.512183141635586,"md_as_05",1.0830195683784,21,"behavior",0.648858554758914
"318","treatment","block 1",18,"1","2262",0.0174359618626529,"md_as_05",1.0830195683784,21,"behavior",0.0455649924151911
"319","treatment","block 1",19,"1","2219",0.245780814065545,"md_as_05",1.0830195683784,21,"behavior",-0.325692584411715
"320","treatment","block 1",20,"1","2863",0.283838289432694,"md_as_05",1.0830195683784,21,"behavior",-0.604135767031895
"321","treatment","block 1",21,"2","3950",0.39801071553414,"md_as_05",1.0830195683784,21,"behavior",-1.4858725119958
"322","treatment","block 1",22,"1","2138",-0.248966365707388,"md_as_05",1.0830195683784,21,"behavior",-0.928986146755438
"323","treatment","block 1",23,"1","3264",-0.134793939605942,"md_as_05",1.0830195683784,21,"behavior",-0.325692584411715
"324","treatment","block 1",24,"1","1748",-0.287023841074536,"md_as_05",1.0830195683784,21,"behavior",-0.000842204688172226
"325","treatment","block 1",25,"1","2811",-0.972058397683213,"md_as_05",1.0830195683784,21,"behavior",-0.464914175721805
"326","treatment","block 2",1,"2","1967",0.588298092369883,"md_as_05",1.0830195683784,21,"behavior",-0.836171752548712
"327","treatment","block 2",2,"1","2593",1.04498779677567,"md_as_05",1.0830195683784,21,"behavior",-0.418506978618442
"328","treatment","block 2",3,"2","3934",0.359953240166991,"md_as_05",1.0830195683784,21,"behavior",1.11293052579255
"329","treatment","block 2",4,"2","2023",1.12110274750996,"md_as_05",1.0830195683784,21,"behavior",-0.000842204688172226
"330","treatment","block 2",5,"2","1640",1.76807982875149,"md_as_05",1.0830195683784,21,"behavior",-0.743357358341985
"331","treatment","block 2",6,"2","3718",1.50167750118145,"md_as_05",1.0830195683784,21,"behavior",-1.57868690620252
"332","treatment","block 2",7,"2","2974",2.07253963168868,"md_as_05",1.0830195683784,21,"behavior",-1.8571300888227
"333","treatment","block 2",8,"2","4715",1.99642468095438,"md_as_05",1.0830195683784,21,"behavior",-0.836171752548712
"334","treatment","block 2",9,"1","2586",0.740527993838478,"md_as_05",1.0830195683784,21,"behavior",-0.511321372825169
"335","treatment","block 2",10,"2","2844",0.816642944572775,"md_as_05",1.0830195683784,21,"behavior",-1.34665092068571
"336","treatment","block 2",11,"1","1907",-0.210908890340239,"md_as_05",1.0830195683784,21,"behavior",-0.372099781515079
"337","treatment","block 2",12,"2","1746",-0.0206215135044958,"md_as_05",1.0830195683784,21,"behavior",-0.186470993101625
"338","treatment","block 2",13,"2","5282",0.0935509125969503,"md_as_05",1.0830195683784,21,"behavior",-0.0936565988948988
"339","treatment","block 2",14,"2","2754",-0.401196267175983,"md_as_05",1.0830195683784,21,"behavior",-0.0936565988948988
"340","treatment","block 2",15,"2","2561",-0.287023841074536,"md_as_05",1.0830195683784,21,"behavior",0.138379386621918
"341","treatment","block 2",16,"2","2197",-0.363138791808834,"md_as_05",1.0830195683784,21,"behavior",0.463229766345461
"342","treatment","block 2",17,"1","2597",0.512183141635586,"md_as_05",1.0830195683784,21,"behavior",0.138379386621918
"343","treatment","block 2",18,"2","2577",0.436068190901288,"md_as_05",1.0830195683784,21,"behavior",0.184786583725281
"344","treatment","block 2",19,"2","2279",0.740527993838478,"md_as_05",1.0830195683784,21,"behavior",-0.743357358341985
"345","treatment","block 2",20,"2","2325",0.96887284604137,"md_as_05",1.0830195683784,21,"behavior",-0.696950161238622
"346","treatment","block 2",21,"1","1757",1.04498779677567,"md_as_05",1.0830195683784,21,"behavior",-1.57868690620252
"347","treatment","block 2",22,"2","2362",-0.401196267175983,"md_as_05",1.0830195683784,21,"behavior",0.463229766345461
"348","treatment","block 2",23,"2","2098",-0.210908890340239,"md_as_05",1.0830195683784,21,"behavior",1.02011613158582
"349","treatment","block 2",24,"2","2849",-0.705656070113172,"md_as_05",1.0830195683784,21,"behavior",1.43778090551609
"350","treatment","block 2",25,"2","3408",-0.781771020847469,"md_as_05",1.0830195683784,21,"behavior",1.43778090551609
"351","control","block 1",1,"1","3127",0.321895764799842,"md_as_05",1.0830195683784,21,"behavior",-0.186470993101625
"352","control","block 1",2,"2","2781",0.0935509125969503,"md_as_05",1.0830195683784,21,"behavior",-0.000842204688172226
"353","control","block 1",3,"1","1716",-0.287023841074536,"md_as_05",1.0830195683784,21,"behavior",-0.000842204688172226
"354","control","block 1",4,"2","2350",-0.0586789888716444,"md_as_05",1.0830195683784,21,"behavior",1.25215211710264
"355","control","block 1",5,"1","2419",0.0935509125969503,"md_as_05",1.0830195683784,21,"behavior",-0.325692584411715
"356","control","block 1",6,"2","3648",0.245780814065545,"md_as_05",1.0830195683784,21,"behavior",1.71622408813627
"357","control","block 1",7,"1","3423",0.854700419939924,"md_as_05",1.0830195683784,21,"behavior",1.48418810261945
"358","control","block 1",8,"2","2752",0.283838289432694,"md_as_05",1.0830195683784,21,"behavior",1.90185287654972
"359","control","block 1",9,"1","3397",-0.857885971581767,"md_as_05",1.0830195683784,21,"behavior",1.48418810261945
"360","control","block 1",10,"2","2943",-0.439253742543131,"md_as_05",1.0830195683784,21,"behavior",1.62340969392954
"361","control","block 1",11,"1","2700",0.131608387964099,"md_as_05",1.0830195683784,21,"behavior",1.809038482343
"362","control","block 1",12,"1","3329",0.245780814065545,"md_as_05",1.0830195683784,21,"behavior",1.809038482343
"363","control","block 1",13,"2","3001",-0.363138791808834,"md_as_05",1.0830195683784,21,"behavior",1.94826007365309
"364","control","block 1",14,"2","3235",0.169665863331248,"md_as_05",1.0830195683784,21,"behavior",1.20574491999927
"365","control","block 1",15,"1","3663",-0.743713545480321,"md_as_05",1.0830195683784,21,"behavior",1.20574491999927
"366","control","block 1",16,"2","2714",0.0174359618626529,"md_as_05",1.0830195683784,21,"behavior",0.138379386621918
"367","control","block 1",17,"1","1580",-1.23846072525325,"md_as_05",1.0830195683784,21,"behavior",-0.789764555445349
"368","control","block 1",18,"1","1380",-0.934000922316064,"md_as_05",1.0830195683784,21,"behavior",-1.11461493516889
"369","control","block 1",19,"2","2805",-1.2765182006204,"md_as_05",1.0830195683784,21,"behavior",1.39137370841273
"370","control","block 1",20,"2","3127",-1.2765182006204,"md_as_05",1.0830195683784,21,"behavior",1.90185287654972
"371","control","block 1",21,"1","2453",-1.23846072525325,"md_as_05",1.0830195683784,21,"behavior",1.48418810261945
"372","control","block 1",22,"2","1919",-1.2004032498861,"md_as_05",1.0830195683784,21,"behavior",0.0455649924151911
"373","control","block 1",23,"1","4872",-0.210908890340239,"md_as_05",1.0830195683784,21,"behavior",0.0455649924151911
"374","control","block 1",24,"2","2145",-0.287023841074536,"md_as_05",1.0830195683784,21,"behavior",0.138379386621918
"375","control","block 1",25,"2","2684",0.0174359618626529,"md_as_05",1.0830195683784,21,"behavior",-0.418506978618442
"376","control","block 2",1,"1","2975",-0.629541119378875,"md_as_05",1.0830195683784,21,"behavior",0.0455649924151911
"377","control","block 2",2,"2","2097",-0.743713545480321,"md_as_05",1.0830195683784,21,"behavior",0.880894540275731
"378","control","block 2",3,"1","1959",-0.934000922316064,"md_as_05",1.0830195683784,21,"behavior",1.39137370841273
"379","control","block 2",4,"2","2573",0.245780814065545,"md_as_05",1.0830195683784,21,"behavior",0.880894540275731
"380","control","block 2",5,"1","1054",-0.934000922316064,"md_as_05",1.0830195683784,21,"behavior",0.695265751862277
"381","control","block 2",6,"2","2910",-0.0206215135044958,"md_as_05",1.0830195683784,21,"behavior",1.71622408813627
"382","control","block 2",7,"1","2959",0.245780814065545,"md_as_05",1.0830195683784,21,"behavior",0.0455649924151911
"383","control","block 2",8,"2","1838",-0.972058397683213,"md_as_05",1.0830195683784,21,"behavior",1.25215211710264
"384","control","block 2",9,"1","3218",0.0174359618626529,"md_as_05",1.0830195683784,21,"behavior",0.324008175035371
"385","control","block 2",10,"2","2963",-0.47731121791028,"md_as_05",1.0830195683784,21,"behavior",1.76263128523963
"386","control","block 2",11,"1","3124",0.0935509125969503,"md_as_05",1.0830195683784,21,"behavior",0.184786583725281
"387","control","block 2",12,"1","2167",-1.2004032498861,"md_as_05",1.0830195683784,21,"behavior",0.788080146069004
"388","control","block 2",13,"1","945",-1.31457567598755,"md_as_05",1.0830195683784,21,"behavior",1.76263128523963
"389","control","block 2",14,"2","2173",0.131608387964099,"md_as_05",1.0830195683784,21,"behavior",0.556044160552188
"390","control","block 2",15,"1","2242",0.131608387964099,"md_as_05",1.0830195683784,21,"behavior",1.94826007365309
"391","control","block 2",16,"2","2186",0.550240617002734,"md_as_05",1.0830195683784,21,"behavior",0.556044160552188
"392","control","block 2",17,"1","3533",0.854700419939924,"md_as_05",1.0830195683784,21,"behavior",-0.928986146755438
"393","control","block 2",18,"1","2875",-0.934000922316064,"md_as_05",1.0830195683784,21,"behavior",1.25215211710264
"394","control","block 2",19,"2","1632",0.816642944572775,"md_as_05",1.0830195683784,21,"behavior",1.53059529972282
"395","control","block 2",20,"2","2392",1.57779245191575,"md_as_05",1.0830195683784,21,"behavior",-1.02180054096217
"396","control","block 2",21,"1","1694",-0.0967364642387931,"md_as_05",1.0830195683784,21,"behavior",-0.604135767031895
"397","control","block 2",22,"2","2089",0.169665863331248,"md_as_05",1.0830195683784,21,"behavior",0.741672948965641
"398","control","block 2",23,"1","1444",-1.39069062672185,"md_as_05",1.0830195683784,21,"behavior",0.741672948965641
"399","control","block 2",24,"2","1798",0.131608387964099,"md_as_05",1.0830195683784,21,"behavior",1.85544567944636
"400","control","block 2",25,"2","1040",1.4636200258143,"md_as_05",1.0830195683784,21,"behavior",1.94826007365309
"401","treatment","block 1",1,"1","2223",-0.17285141497309,"md_as_06",0.134294426478921,17,"behavior",-0.232878190204989
"402","treatment","block 1",2,"2","2456",0.96887284604137,"md_as_06",0.134294426478921,17,"behavior",-0.418506978618442
"403","treatment","block 1",3,"1","2452",-0.210908890340239,"md_as_06",0.134294426478921,17,"behavior",-1.02180054096217
"404","treatment","block 1",4,"1","2655",-0.591483644011726,"md_as_06",0.134294426478921,17,"behavior",0.602451357655551
"405","treatment","block 1",5,"1","2321",-0.629541119378875,"md_as_06",0.134294426478921,17,"behavior",0.648858554758914
"406","treatment","block 1",6,"1","1874",-1.08623082378466,"md_as_06",0.134294426478921,17,"behavior",0.973708934482457
"407","treatment","block 1",7,"1","2012",-1.12428829915181,"md_as_06",0.134294426478921,17,"behavior",1.11293052579255
"408","treatment","block 1",8,"1","2736",-1.23846072525325,"md_as_06",0.134294426478921,17,"behavior",1.62340969392954
"409","treatment","block 1",9,"2","1889",0.0174359618626529,"md_as_06",0.134294426478921,17,"behavior",1.39137370841273
"410","treatment","block 1",10,"1","2840",-0.743713545480321,"md_as_06",0.134294426478921,17,"behavior",0.0455649924151911
"411","treatment","block 1",11,"2","2750",-0.0206215135044958,"md_as_06",0.134294426478921,17,"behavior",0.973708934482457
"412","treatment","block 1",12,"1","1707",-1.31457567598755,"md_as_06",0.134294426478921,17,"behavior",0.463229766345461
"413","treatment","block 1",13,"1","3308",-1.50486305282329,"md_as_06",0.134294426478921,17,"behavior",0.973708934482457
"414","treatment","block 1",14,"1","1483",-1.46680557745615,"md_as_06",0.134294426478921,17,"behavior",1.85544567944636
"415","treatment","block 1",15,"1","3506",-1.58097800355759,"md_as_06",0.134294426478921,17,"behavior",1.85544567944636
"416","treatment","block 1",16,"1","2598",-1.50486305282329,"md_as_06",0.134294426478921,17,"behavior",2.08748166496318
"417","treatment","block 1",17,"2","1807",-0.0206215135044958,"md_as_06",0.134294426478921,17,"behavior",1.99466727075645
"418","treatment","block 1",18,"1","2242",-1.54292052819044,"md_as_06",0.134294426478921,17,"behavior",0.277600977932008
"419","treatment","block 1",19,"1","1578",-1.69515042965904,"md_as_06",0.134294426478921,17,"behavior",1.94826007365309
"420","treatment","block 1",20,"1","3836",-1.54292052819044,"md_as_06",0.134294426478921,17,"behavior",2.04107446785981
"421","treatment","block 1",21,"2","2571",0.550240617002734,"md_as_06",0.134294426478921,17,"behavior",1.94826007365309
"422","treatment","block 1",22,"1","1619",-1.39069062672185,"md_as_06",0.134294426478921,17,"behavior",1.15933772289591
"423","treatment","block 1",23,"1","3442",-1.428748102089,"md_as_06",0.134294426478921,17,"behavior",1.57700249682618
"424","treatment","block 1",24,"1","1567",-1.39069062672185,"md_as_06",0.134294426478921,17,"behavior",1.48418810261945
"425","treatment","block 1",25,"1","3520",-1.58097800355759,"md_as_06",0.134294426478921,17,"behavior",1.53059529972282
"426","treatment","block 2",1,"2","2824",0.588298092369883,"md_as_06",0.134294426478921,17,"behavior",0.324008175035371
"427","treatment","block 2",2,"1","1436",-0.0586789888716444,"md_as_06",0.134294426478921,17,"behavior",0.324008175035371
"428","treatment","block 2",3,"2","2011",0.66441304310418,"md_as_06",0.134294426478921,17,"behavior",0.0919721895185544
"429","treatment","block 2",4,"2","2144",0.39801071553414,"md_as_06",0.134294426478921,17,"behavior",0.370415372138734
"430","treatment","block 2",5,"2","2494",0.550240617002734,"md_as_06",0.134294426478921,17,"behavior",0.509636963448824
"431","treatment","block 2",6,"2","2109",0.321895764799842,"md_as_06",0.134294426478921,17,"behavior",0.138379386621918
"432","treatment","block 2",7,"2","2557",0.169665863331248,"md_as_06",0.134294426478921,17,"behavior",0.0919721895185544
"433","treatment","block 2",8,"2","1619",0.207723338698396,"md_as_06",0.134294426478921,17,"behavior",0.370415372138734
"434","treatment","block 2",9,"1","1906",-0.47731121791028,"md_as_06",0.134294426478921,17,"behavior",0.324008175035371
"435","treatment","block 2",10,"2","1697",0.245780814065545,"md_as_06",0.134294426478921,17,"behavior",0.556044160552188
"436","treatment","block 2",11,"1","1723",-0.47731121791028,"md_as_06",0.134294426478921,17,"behavior",0.324008175035371
"437","treatment","block 2",12,"2","2947",0.740527993838478,"md_as_06",0.134294426478921,17,"behavior",0.509636963448824
"438","treatment","block 2",13,"2","2827",0.474125666268437,"md_as_06",0.134294426478921,17,"behavior",0.556044160552188
"439","treatment","block 2",14,"2","1952",0.131608387964099,"md_as_06",0.134294426478921,17,"behavior",0.277600977932008
"440","treatment","block 2",15,"2","2369",-0.0206215135044958,"md_as_06",0.134294426478921,17,"behavior",0.556044160552188
"441","treatment","block 2",16,"2","2101",0.0174359618626529,"md_as_06",0.134294426478921,17,"behavior",0.138379386621918
"442","treatment","block 2",17,"1","2812",-0.515368693277429,"md_as_06",0.134294426478921,17,"behavior",0.463229766345461
"443","treatment","block 2",18,"2","2325",0.359953240166991,"md_as_06",0.134294426478921,17,"behavior",0.880894540275731
"444","treatment","block 2",19,"2","2547",0.169665863331248,"md_as_06",0.134294426478921,17,"behavior",0.463229766345461
"445","treatment","block 2",20,"2","2166",0.245780814065545,"md_as_06",0.134294426478921,17,"behavior",0.0919721895185544
"446","treatment","block 2",21,"1","1677",0.321895764799842,"md_as_06",0.134294426478921,17,"behavior",0.602451357655551
"447","treatment","block 2",22,"2","3456",0.626355567737032,"md_as_06",0.134294426478921,17,"behavior",1.298559314206
"448","treatment","block 2",23,"2","2295",0.854700419939924,"md_as_06",0.134294426478921,17,"behavior",1.25215211710264
"449","treatment","block 2",24,"2","3709",1.15916022287711,"md_as_06",0.134294426478921,17,"behavior",1.11293052579255
"450","treatment","block 2",25,"2","3016",0.816642944572775,"md_as_06",0.134294426478921,17,"behavior",1.06652332868918
"451","control","block 1",1,"1","1216",0.359953240166991,"md_as_06",0.134294426478921,17,"behavior",-1.4858725119958
"452","control","block 1",2,"2","1509",0.778585469205626,"md_as_06",0.134294426478921,17,"behavior",-0.325692584411715
"453","control","block 1",3,"1","1358",0.169665863331248,"md_as_06",0.134294426478921,17,"behavior",-0.557728569928532
"454","control","block 1",4,"2","1572",0.359953240166991,"md_as_06",0.134294426478921,17,"behavior",-0.279285387308352
"455","control","block 1",5,"1","3030",-0.248966365707388,"md_as_06",0.134294426478921,17,"behavior",0.231193780828644
"456","control","block 1",6,"2","1618",0.0174359618626529,"md_as_06",0.134294426478921,17,"behavior",0.509636963448824
"457","control","block 1",7,"1","1388",-0.325081316441685,"md_as_06",0.134294426478921,17,"behavior",0.370415372138734
"458","control","block 1",8,"2","1138",0.436068190901288,"md_as_06",0.134294426478921,17,"behavior",0.231193780828644
"459","control","block 1",9,"1","1325",-0.401196267175983,"md_as_06",0.134294426478921,17,"behavior",0.0455649924151911
"460","control","block 1",10,"2","1941",0.39801071553414,"md_as_06",0.134294426478921,17,"behavior",0.788080146069004
"461","control","block 1",11,"1","1854",-0.515368693277429,"md_as_06",0.134294426478921,17,"behavior",-0.511321372825169
"462","control","block 1",12,"1","1977",-0.287023841074536,"md_as_06",0.134294426478921,17,"behavior",0.324008175035371
"463","control","block 1",13,"2","1834",1.04498779677567,"md_as_06",0.134294426478921,17,"behavior",0.927301737379094
"464","control","block 1",14,"2","2286",0.930815370674221,"md_as_06",0.134294426478921,17,"behavior",-0.372099781515079
"465","control","block 1",15,"1","1699",-0.439253742543131,"md_as_06",0.134294426478921,17,"behavior",-0.279285387308352
"466","control","block 1",16,"2","1710",0.702470518471329,"md_as_06",0.134294426478921,17,"behavior",0.973708934482457
"467","control","block 1",17,"1","1888",-0.553426168644577,"md_as_06",0.134294426478921,17,"behavior",0.277600977932008
"468","control","block 1",18,"1","2359",-0.553426168644577,"md_as_06",0.134294426478921,17,"behavior",0.509636963448824
"469","control","block 1",19,"2","1278",1.00693032140852,"md_as_06",0.134294426478921,17,"behavior",0.556044160552188
"470","control","block 1",20,"2","1159",1.31139012434571,"md_as_06",0.134294426478921,17,"behavior",0.324008175035371
"471","control","block 1",21,"1","1900",-0.0206215135044958,"md_as_06",0.134294426478921,17,"behavior",-0.836171752548712
"472","control","block 1",22,"2","1794",0.39801071553414,"md_as_06",0.134294426478921,17,"behavior",0.138379386621918
"473","control","block 1",23,"1","2076",-0.743713545480321,"md_as_06",0.134294426478921,17,"behavior",-0.0936565988948988
"474","control","block 1",24,"2","1983",0.436068190901288,"md_as_06",0.134294426478921,17,"behavior",0.648858554758914
"475","control","block 1",25,"2","1559",0.131608387964099,"md_as_06",0.134294426478921,17,"behavior",0.138379386621918
"476","control","block 2",1,"1","1696",0.588298092369883,"md_as_06",0.134294426478921,17,"behavior",-0.0472494017915355
"477","control","block 2",2,"2","1252",0.892757895307073,"md_as_06",0.134294426478921,17,"behavior",0.370415372138734
"478","control","block 2",3,"1","2200",0.131608387964099,"md_as_06",0.134294426478921,17,"behavior",0.184786583725281
"479","control","block 2",4,"2","1401",1.12110274750996,"md_as_06",0.134294426478921,17,"behavior",0.416822569242098
"480","control","block 2",5,"1","2559",-0.210908890340239,"md_as_06",0.134294426478921,17,"behavior",-0.0472494017915355
"481","control","block 2",6,"2","2749",0.66441304310418,"md_as_06",0.134294426478921,17,"behavior",0.556044160552188
"482","control","block 2",7,"1","1417",0.0174359618626529,"md_as_06",0.134294426478921,17,"behavior",0.0455649924151911
"483","control","block 2",8,"2","2492",0.436068190901288,"md_as_06",0.134294426478921,17,"behavior",0.138379386621918
"484","control","block 2",9,"1","2302",-0.591483644011726,"md_as_06",0.134294426478921,17,"behavior",1.06652332868918
"485","control","block 2",10,"2","2213",0.474125666268437,"md_as_06",0.134294426478921,17,"behavior",0.973708934482457
"486","control","block 2",11,"1","2882",-0.325081316441685,"md_as_06",0.134294426478921,17,"behavior",0.184786583725281
"487","control","block 2",12,"1","2043",-0.667598594746023,"md_as_06",0.134294426478921,17,"behavior",0.463229766345461
"488","control","block 2",13,"1","2434",-1.08623082378466,"md_as_06",0.134294426478921,17,"behavior",0.834487343172367
"489","control","block 2",14,"2","2124",1.04498779677567,"md_as_06",0.134294426478921,17,"behavior",1.02011613158582
"490","control","block 2",15,"1","2338",-1.39069062672185,"md_as_06",0.134294426478921,17,"behavior",1.06652332868918
"491","control","block 2",16,"2","2754",0.702470518471329,"md_as_06",0.134294426478921,17,"behavior",1.43778090551609
"492","control","block 2",17,"1","1351",-1.46680557745615,"md_as_06",0.134294426478921,17,"behavior",1.34496651130936
"493","control","block 2",18,"1","4706",-1.50486305282329,"md_as_06",0.134294426478921,17,"behavior",1.48418810261945
"494","control","block 2",19,"2","1845",1.00693032140852,"md_as_06",0.134294426478921,17,"behavior",1.85544567944636
"495","control","block 2",20,"2","994",0.96887284604137,"md_as_06",0.134294426478921,17,"behavior",1.53059529972282
"496","control","block 2",21,"1","2061",-1.08623082378466,"md_as_06",0.134294426478921,17,"behavior",1.20574491999927
"497","control","block 2",22,"2","3755",1.38750507508001,"md_as_06",0.134294426478921,17,"behavior",1.66981689103291
"498","control","block 2",23,"1","2370",-1.12428829915181,"md_as_06",0.134294426478921,17,"behavior",1.11293052579255
"499","control","block 2",24,"2","2875",0.66441304310418,"md_as_06",0.134294426478921,17,"behavior",1.48418810261945
"500","control","block 2",25,"2","2456",0.245780814065545,"md_as_06",0.134294426478921,17,"behavior",1.02011613158582
"501","control","block 1",1,"1","1390",-0.819828496214618,"md_as_07",1.71550299631138,17,"behavior",2.04107446785981
"502","control","block 1",2,"2","1725",-0.401196267175983,"md_as_07",1.71550299631138,17,"behavior",0.927301737379094
"503","control","block 1",3,"1","2448",-0.210908890340239,"md_as_07",1.71550299631138,17,"behavior",0.880894540275731
"504","control","block 1",4,"2","1389",0.245780814065545,"md_as_07",1.71550299631138,17,"behavior",0.741672948965641
"505","control","block 1",5,"1","1475",-1.2004032498861,"md_as_07",1.71550299631138,17,"behavior",0.695265751862277
"506","control","block 1",6,"2","1604",0.816642944572775,"md_as_07",1.71550299631138,17,"behavior",1.39137370841273
"507","control","block 1",7,"1","3357",-1.2765182006204,"md_as_07",1.71550299631138,17,"behavior",0.463229766345461
"508","control","block 1",8,"2","2661",-0.17285141497309,"md_as_07",1.71550299631138,17,"behavior",1.48418810261945
"509","control","block 1",9,"1","2788",-1.2765182006204,"md_as_07",1.71550299631138,17,"behavior",0.788080146069004
"510","control","block 1",10,"2","2447",-0.0586789888716444,"md_as_07",1.71550299631138,17,"behavior",1.76263128523963
"511","control","block 1",11,"1","4219",-1.39069062672185,"md_as_07",1.71550299631138,17,"behavior",-0.0472494017915355
"512","control","block 1",12,"1","2469",-1.46680557745615,"md_as_07",1.71550299631138,17,"behavior",1.62340969392954
"513","control","block 1",13,"2","1934",0.321895764799842,"md_as_07",1.71550299631138,17,"behavior",1.94826007365309
"514","control","block 1",14,"2","1982",0.0935509125969503,"md_as_07",1.71550299631138,17,"behavior",-0.0936565988948988
"515","control","block 1",15,"1","3621",-1.46680557745615,"md_as_07",1.71550299631138,17,"behavior",0.0919721895185544
"516","control","block 1",16,"2","900",-1.31457567598755,"md_as_07",1.71550299631138,17,"behavior",1.66981689103291
"517","control","block 1",17,"1","2371",-0.0206215135044958,"md_as_07",1.71550299631138,17,"behavior",0.184786583725281
"518","control","block 1",18,"1","3732",-1.31457567598755,"md_as_07",1.71550299631138,17,"behavior",0.0455649924151911
"519","control","block 1",19,"2","3111",0.550240617002734,"md_as_07",1.71550299631138,17,"behavior",2.04107446785981
"520","control","block 1",20,"2","2786",0.359953240166991,"md_as_07",1.71550299631138,17,"behavior",0.370415372138734
"521","control","block 1",21,"1","4075",-1.61903547892474,"md_as_07",1.71550299631138,17,"behavior",0.0919721895185544
"522","control","block 1",22,"2","1714",-0.0206215135044958,"md_as_07",1.71550299631138,17,"behavior",1.66981689103291
"523","control","block 1",23,"1","3060",-1.2765182006204,"md_as_07",1.71550299631138,17,"behavior",0.231193780828644
"524","control","block 1",24,"2","3201",-0.0206215135044958,"md_as_07",1.71550299631138,17,"behavior",1.71622408813627
"525","control","block 1",25,"2","2811",-0.0206215135044958,"md_as_07",1.71550299631138,17,"behavior",-0.140063795998262
"526","control","block 2",1,"1","2550",-1.08623082378466,"md_as_07",1.71550299631138,17,"behavior",1.48418810261945
"527","control","block 2",2,"2","1412",0.283838289432694,"md_as_07",1.71550299631138,17,"behavior",1.66981689103291
"528","control","block 2",3,"1","1494",-1.31457567598755,"md_as_07",1.71550299631138,17,"behavior",0.648858554758914
"529","control","block 2",4,"2","2071",0.131608387964099,"md_as_07",1.71550299631138,17,"behavior",1.71622408813627
"530","control","block 2",5,"1","1649",-1.01011587305036,"md_as_07",1.71550299631138,17,"behavior",0.324008175035371
"531","control","block 2",6,"2","2061",0.169665863331248,"md_as_07",1.71550299631138,17,"behavior",1.11293052579255
"532","control","block 2",7,"1","2464",-1.01011587305036,"md_as_07",1.71550299631138,17,"behavior",0.370415372138734
"533","control","block 2",8,"2","2660",-0.0206215135044958,"md_as_07",1.71550299631138,17,"behavior",0.834487343172367
"534","control","block 2",9,"1","2619",-0.0586789888716444,"md_as_07",1.71550299631138,17,"behavior",0.927301737379094
"535","control","block 2",10,"2","2229",0.0554934372298016,"md_as_07",1.71550299631138,17,"behavior",0.602451357655551
"536","control","block 2",11,"1","1367",-1.01011587305036,"md_as_07",1.71550299631138,17,"behavior",0.138379386621918
"537","control","block 2",12,"1","1399",-1.3526331513547,"md_as_07",1.71550299631138,17,"behavior",1.53059529972282
"538","control","block 2",13,"1","1899",-1.12428829915181,"md_as_07",1.71550299631138,17,"behavior",1.66981689103291
"539","control","block 2",14,"2","1915",0.169665863331248,"md_as_07",1.71550299631138,17,"behavior",1.94826007365309
"540","control","block 2",15,"1","2754",-0.972058397683213,"md_as_07",1.71550299631138,17,"behavior",0.556044160552188
"541","control","block 2",16,"2","2754",-0.210908890340239,"md_as_07",1.71550299631138,17,"behavior",-1.30024372358234
"542","control","block 2",17,"1","2552",-0.934000922316064,"md_as_07",1.71550299631138,17,"behavior",-0.0936565988948988
"543","control","block 2",18,"1","1233",-1.46680557745615,"md_as_07",1.71550299631138,17,"behavior",1.48418810261945
"544","control","block 2",19,"2","1471",-0.0206215135044958,"md_as_07",1.71550299631138,17,"behavior",1.66981689103291
"545","control","block 2",20,"2","2079",-0.17285141497309,"md_as_07",1.71550299631138,17,"behavior",0.370415372138734
"546","control","block 2",21,"1","1401",-0.857885971581767,"md_as_07",1.71550299631138,17,"behavior",0.231193780828644
"547","control","block 2",22,"2","2577",-0.17285141497309,"md_as_07",1.71550299631138,17,"behavior",1.298559314206
"548","control","block 2",23,"1","1963",-1.16234577451896,"md_as_07",1.71550299631138,17,"behavior",0.138379386621918
"549","control","block 2",24,"2","2219",-0.0967364642387931,"md_as_07",1.71550299631138,17,"behavior",1.25215211710264
"550","control","block 2",25,"2","2264",-0.0206215135044958,"md_as_07",1.71550299631138,17,"behavior",0.0455649924151911
"551","treatment","block 1",1,"1","2852",-1.2765182006204,"md_as_07",1.71550299631138,17,"behavior",0.880894540275731
"552","treatment","block 1",2,"2","2114",-0.47731121791028,"md_as_07",1.71550299631138,17,"behavior",1.85544567944636
"553","treatment","block 1",3,"1","1183",-1.23846072525325,"md_as_07",1.71550299631138,17,"behavior",1.34496651130936
"554","treatment","block 1",4,"1","2856",-1.50486305282329,"md_as_07",1.71550299631138,17,"behavior",2.22670325627327
"555","treatment","block 1",5,"1","2518",-1.46680557745615,"md_as_07",1.71550299631138,17,"behavior",1.809038482343
"556","treatment","block 1",6,"1","2998",-1.3526331513547,"md_as_07",1.71550299631138,17,"behavior",1.66981689103291
"557","treatment","block 1",7,"1","1028",-1.58097800355759,"md_as_07",1.71550299631138,17,"behavior",1.48418810261945
"558","treatment","block 1",8,"1","1167",-1.54292052819044,"md_as_07",1.71550299631138,17,"behavior",1.94826007365309
"559","treatment","block 1",9,"2","1797",-0.325081316441685,"md_as_07",1.71550299631138,17,"behavior",1.99466727075645
"560","treatment","block 1",10,"1","3835",-1.3526331513547,"md_as_07",1.71550299631138,17,"behavior",0.834487343172367
"561","treatment","block 1",11,"2","2596",-0.210908890340239,"md_as_07",1.71550299631138,17,"behavior",2.22670325627327
"562","treatment","block 1",12,"1","1335",-1.3526331513547,"md_as_07",1.71550299631138,17,"behavior",1.25215211710264
"563","treatment","block 1",13,"1","3871",-1.31457567598755,"md_as_07",1.71550299631138,17,"behavior",2.22670325627327
"564","treatment","block 1",14,"1","1052",-1.54292052819044,"md_as_07",1.71550299631138,17,"behavior",1.85544567944636
"565","treatment","block 1",15,"1","3996",-1.46680557745615,"md_as_07",1.71550299631138,17,"behavior",2.08748166496318
"566","treatment","block 1",16,"1","1910",-1.46680557745615,"md_as_07",1.71550299631138,17,"behavior",1.94826007365309
"567","treatment","block 1",17,"2","2230",-0.0206215135044958,"md_as_07",1.71550299631138,17,"behavior",1.94826007365309
"568","treatment","block 1",18,"1","2029",-1.58097800355759,"md_as_07",1.71550299631138,17,"behavior",1.25215211710264
"569","treatment","block 1",19,"1","1506",-1.31457567598755,"md_as_07",1.71550299631138,17,"behavior",1.85544567944636
"570","treatment","block 1",20,"1","2377",-1.39069062672185,"md_as_07",1.71550299631138,17,"behavior",1.85544567944636
"571","treatment","block 1",21,"2","1993",0.321895764799842,"md_as_07",1.71550299631138,17,"behavior",1.62340969392954
"572","treatment","block 1",22,"1","954",-1.31457567598755,"md_as_07",1.71550299631138,17,"behavior",0.556044160552188
"573","treatment","block 1",23,"1","3978",-1.23846072525325,"md_as_07",1.71550299631138,17,"behavior",1.53059529972282
"574","treatment","block 1",24,"1","1774",-1.12428829915181,"md_as_07",1.71550299631138,17,"behavior",1.02011613158582
"575","treatment","block 1",25,"1","2437",-1.39069062672185,"md_as_07",1.71550299631138,17,"behavior",1.66981689103291
"576","treatment","block 2",1,"2","1968",0.0935509125969503,"md_as_07",1.71550299631138,17,"behavior",1.62340969392954
"577","treatment","block 2",2,"1","3219",-1.04817334841751,"md_as_07",1.71550299631138,17,"behavior",1.62340969392954
"578","treatment","block 2",3,"2","3182",-0.819828496214618,"md_as_07",1.71550299631138,17,"behavior",1.57700249682618
"579","treatment","block 2",4,"2","1580",-1.12428829915181,"md_as_07",1.71550299631138,17,"behavior",1.48418810261945
"580","treatment","block 2",5,"2","959",-0.934000922316064,"md_as_07",1.71550299631138,17,"behavior",1.94826007365309
"581","treatment","block 2",6,"2","1299",-0.743713545480321,"md_as_07",1.71550299631138,17,"behavior",1.43778090551609
"582","treatment","block 2",7,"2","1179",-1.16234577451896,"md_as_07",1.71550299631138,17,"behavior",1.39137370841273
"583","treatment","block 2",8,"2","832",-0.934000922316064,"md_as_07",1.71550299631138,17,"behavior",1.02011613158582
"584","treatment","block 2",9,"1","4044",-1.428748102089,"md_as_07",1.71550299631138,17,"behavior",1.25215211710264
"585","treatment","block 2",10,"2","1249",-0.819828496214618,"md_as_07",1.71550299631138,17,"behavior",1.62340969392954
"586","treatment","block 2",11,"1","1650",-1.16234577451896,"md_as_07",1.71550299631138,17,"behavior",1.62340969392954
"587","treatment","block 2",12,"2","1896",-1.39069062672185,"md_as_07",1.71550299631138,17,"behavior",1.48418810261945
"588","treatment","block 2",13,"2","2552",-0.972058397683213,"md_as_07",1.71550299631138,17,"behavior",1.71622408813627
"589","treatment","block 2",14,"2","1409",-1.16234577451896,"md_as_07",1.71550299631138,17,"behavior",1.62340969392954
"590","treatment","block 2",15,"2","1378",-1.2004032498861,"md_as_07",1.71550299631138,17,"behavior",1.809038482343
"591","treatment","block 2",16,"2","3852",-1.16234577451896,"md_as_07",1.71550299631138,17,"behavior",1.34496651130936
"592","treatment","block 2",17,"1","2313",-0.210908890340239,"md_as_07",1.71550299631138,17,"behavior",1.71622408813627
"593","treatment","block 2",18,"2","2955",-1.01011587305036,"md_as_07",1.71550299631138,17,"behavior",1.02011613158582
"594","treatment","block 2",19,"2","2190",-0.363138791808834,"md_as_07",1.71550299631138,17,"behavior",1.48418810261945
"595","treatment","block 2",20,"2","3545",-0.819828496214618,"md_as_07",1.71550299631138,17,"behavior",0.834487343172367
"596","treatment","block 2",21,"1","2069",-0.667598594746023,"md_as_07",1.71550299631138,17,"behavior",1.43778090551609
"597","treatment","block 2",22,"2","2243",-0.515368693277429,"md_as_07",1.71550299631138,17,"behavior",1.20574491999927
"598","treatment","block 2",23,"2","1693",-1.12428829915181,"md_as_07",1.71550299631138,17,"behavior",1.02011613158582
"599","treatment","block 2",24,"2","2261",-0.819828496214618,"md_as_07",1.71550299631138,17,"behavior",1.39137370841273
"600","treatment","block 2",25,"2","3534",-1.01011587305036,"md_as_07",1.71550299631138,17,"behavior",-2.08916607433952
"601","control","block 1",1,"1","2939",-0.47731121791028,"md_as_08",0.450536140445413,20,"behavior",-1.16102213227225
"602","control","block 1",2,"2","4102",0.245780814065545,"md_as_08",0.450536140445413,20,"behavior",-0.836171752548712
"603","control","block 1",3,"1","2949",-0.934000922316064,"md_as_08",0.450536140445413,20,"behavior",-0.604135767031895
"604","control","block 1",4,"2","3394",1.15916022287711,"md_as_08",0.450536140445413,20,"behavior",0.277600977932008
"605","control","block 1",5,"1","3092",-0.819828496214618,"md_as_08",0.450536140445413,20,"behavior",-0.279285387308352
"606","control","block 1",6,"2","3393",1.04498779677567,"md_as_08",0.450536140445413,20,"behavior",0.277600977932008
"607","control","block 1",7,"1","2227",-0.857885971581767,"md_as_08",0.450536140445413,20,"behavior",0.138379386621918
"608","control","block 1",8,"2","3475",1.00693032140852,"md_as_08",0.450536140445413,20,"behavior",0.509636963448824
"609","control","block 1",9,"1","3350",-0.515368693277429,"md_as_08",0.450536140445413,20,"behavior",0.231193780828644
"610","control","block 1",10,"2","2291",-0.439253742543131,"md_as_08",0.450536140445413,20,"behavior",0.416822569242098
"611","control","block 1",11,"1","3091",-0.401196267175983,"md_as_08",0.450536140445413,20,"behavior",0.0919721895185544
"612","control","block 1",12,"1","3702",-0.743713545480321,"md_as_08",0.450536140445413,20,"behavior",0.788080146069004
"613","control","block 1",13,"2","3324",1.31139012434571,"md_as_08",0.450536140445413,20,"behavior",0.741672948965641
"614","control","block 1",14,"2","3898",0.778585469205626,"md_as_08",0.450536140445413,20,"behavior",0.602451357655551
"615","control","block 1",15,"1","2742",-0.705656070113172,"md_as_08",0.450536140445413,20,"behavior",0.370415372138734
"616","control","block 1",16,"2","2433",1.19721769824426,"md_as_08",0.450536140445413,20,"behavior",0.788080146069004
"617","control","block 1",17,"1","2780",-0.934000922316064,"md_as_08",0.450536140445413,20,"behavior",0.509636963448824
"618","control","block 1",18,"1","2918",-0.895943446948915,"md_as_08",0.450536140445413,20,"behavior",0.834487343172367
"619","control","block 1",19,"2","1747",0.740527993838478,"md_as_08",0.450536140445413,20,"behavior",1.11293052579255
"620","control","block 1",20,"2","2703",1.04498779677567,"md_as_08",0.450536140445413,20,"behavior",0.973708934482457
"621","control","block 1",21,"1","1803",-0.857885971581767,"md_as_08",0.450536140445413,20,"behavior",1.20574491999927
"622","control","block 1",22,"2","2698",1.15916022287711,"md_as_08",0.450536140445413,20,"behavior",0.927301737379094
"623","control","block 1",23,"1","1944",-0.972058397683213,"md_as_08",0.450536140445413,20,"behavior",0.695265751862277
"624","control","block 1",24,"2","2140",1.19721769824426,"md_as_08",0.450536140445413,20,"behavior",1.06652332868918
"625","control","block 1",25,"2","2017",1.34944759971286,"md_as_08",0.450536140445413,20,"behavior",1.06652332868918
"626","control","block 2",1,"1","3350",-0.819828496214618,"md_as_08",0.450536140445413,20,"behavior",-0.650542964135259
"627","control","block 2",2,"2","2450",1.31139012434571,"md_as_08",0.450536140445413,20,"behavior",0.231193780828644
"628","control","block 2",3,"1","1605",-0.972058397683213,"md_as_08",0.450536140445413,20,"behavior",-0.000842204688172226
"629","control","block 2",4,"2","2002",1.42556255044715,"md_as_08",0.450536140445413,20,"behavior",0.648858554758914
"630","control","block 2",5,"1","1741",-0.934000922316064,"md_as_08",0.450536140445413,20,"behavior",0.556044160552188
"631","control","block 2",6,"2","1753",1.4636200258143,"md_as_08",0.450536140445413,20,"behavior",0.741672948965641
"632","control","block 2",7,"1","1416",-0.934000922316064,"md_as_08",0.450536140445413,20,"behavior",0.324008175035371
"633","control","block 2",8,"2","2827",1.34944759971286,"md_as_08",0.450536140445413,20,"behavior",0.695265751862277
"634","control","block 2",9,"1","3440",-0.629541119378875,"md_as_08",0.450536140445413,20,"behavior",0.277600977932008
"635","control","block 2",10,"2","1186",1.27333264897856,"md_as_08",0.450536140445413,20,"behavior",0.602451357655551
"636","control","block 2",11,"1","3617",-0.819828496214618,"md_as_08",0.450536140445413,20,"behavior",0.324008175035371
"637","control","block 2",12,"1","1770",-0.895943446948915,"md_as_08",0.450536140445413,20,"behavior",0.741672948965641
"638","control","block 2",13,"1","2237",-1.04817334841751,"md_as_08",0.450536140445413,20,"behavior",1.39137370841273
"639","control","block 2",14,"2","2525",1.42556255044715,"md_as_08",0.450536140445413,20,"behavior",1.53059529972282
"640","control","block 2",15,"1","3018",-0.743713545480321,"md_as_08",0.450536140445413,20,"behavior",1.06652332868918
"641","control","block 2",16,"2","3860",1.42556255044715,"md_as_08",0.450536140445413,20,"behavior",1.20574491999927
"642","control","block 2",17,"1","2162",-1.04817334841751,"md_as_08",0.450536140445413,20,"behavior",0.648858554758914
"643","control","block 2",18,"1","3324",-0.819828496214618,"md_as_08",0.450536140445413,20,"behavior",1.11293052579255
"644","control","block 2",19,"2","3358",1.31139012434571,"md_as_08",0.450536140445413,20,"behavior",1.15933772289591
"645","control","block 2",20,"2","3610",1.57779245191575,"md_as_08",0.450536140445413,20,"behavior",0.509636963448824
"646","control","block 2",21,"1","2979",-0.553426168644577,"md_as_08",0.450536140445413,20,"behavior",0.416822569242098
"647","control","block 2",22,"2","2746",1.50167750118145,"md_as_08",0.450536140445413,20,"behavior",0.880894540275731
"648","control","block 2",23,"1","4005",-0.781771020847469,"md_as_08",0.450536140445413,20,"behavior",0.602451357655551
"649","control","block 2",24,"2","3079",1.5397349765486,"md_as_08",0.450536140445413,20,"behavior",1.02011613158582
"650","control","block 2",25,"2","3433",1.57779245191575,"md_as_08",0.450536140445413,20,"behavior",0.648858554758914
"651","treatment","block 1",1,"1","2842",-0.210908890340239,"md_as_08",0.450536140445413,20,"behavior",-1.34665092068571
"652","treatment","block 1",2,"2","3808",1.31139012434571,"md_as_08",0.450536140445413,20,"behavior",-0.000842204688172226
"653","treatment","block 1",3,"1","2852",-0.325081316441685,"md_as_08",0.450536140445413,20,"behavior",-0.186470993101625
"654","treatment","block 1",4,"1","3505",-0.47731121791028,"md_as_08",0.450536140445413,20,"behavior",0.0919721895185544
"655","treatment","block 1",5,"1","1940",-0.667598594746023,"md_as_08",0.450536140445413,20,"behavior",0.324008175035371
"656","treatment","block 1",6,"1","3100",-0.819828496214618,"md_as_08",0.450536140445413,20,"behavior",0.277600977932008
"657","treatment","block 1",7,"1","1472",-0.857885971581767,"md_as_08",0.450536140445413,20,"behavior",0.927301737379094
"658","treatment","block 1",8,"1","2845",-1.04817334841751,"md_as_08",0.450536140445413,20,"behavior",1.20574491999927
"659","treatment","block 1",9,"2","3447",1.34944759971286,"md_as_08",0.450536140445413,20,"behavior",1.15933772289591
"660","treatment","block 1",10,"1","2173",-0.819828496214618,"md_as_08",0.450536140445413,20,"behavior",0.741672948965641
"661","treatment","block 1",11,"2","3522",1.42556255044715,"md_as_08",0.450536140445413,20,"behavior",1.06652332868918
"662","treatment","block 1",12,"1","2080",-0.743713545480321,"md_as_08",0.450536140445413,20,"behavior",0.602451357655551
"663","treatment","block 1",13,"1","2104",-0.972058397683213,"md_as_08",0.450536140445413,20,"behavior",1.02011613158582
"664","treatment","block 1",14,"1","2622",-1.04817334841751,"md_as_08",0.450536140445413,20,"behavior",1.02011613158582
"665","treatment","block 1",15,"1","3766",-1.12428829915181,"md_as_08",0.450536140445413,20,"behavior",1.39137370841273
"666","treatment","block 1",16,"1","3330",-1.08623082378466,"md_as_08",0.450536140445413,20,"behavior",1.298559314206
"667","treatment","block 1",17,"2","4302",1.38750507508001,"md_as_08",0.450536140445413,20,"behavior",1.34496651130936
"668","treatment","block 1",18,"1","1977",-1.01011587305036,"md_as_08",0.450536140445413,20,"behavior",0.788080146069004
"669","treatment","block 1",19,"1","3100",-1.16234577451896,"md_as_08",0.450536140445413,20,"behavior",0.880894540275731
"670","treatment","block 1",20,"1","3541",-1.01011587305036,"md_as_08",0.450536140445413,20,"behavior",1.34496651130936
"671","treatment","block 1",21,"2","1699",1.42556255044715,"md_as_08",0.450536140445413,20,"behavior",1.34496651130936
"672","treatment","block 1",22,"1","3711",-0.972058397683213,"md_as_08",0.450536140445413,20,"behavior",0.648858554758914
"673","treatment","block 1",23,"1","3130",-1.08623082378466,"md_as_08",0.450536140445413,20,"behavior",0.973708934482457
"674","treatment","block 1",24,"1","3098",-1.12428829915181,"md_as_08",0.450536140445413,20,"behavior",1.15933772289591
"675","treatment","block 1",25,"1","3479",-1.23846072525325,"md_as_08",0.450536140445413,20,"behavior",1.25215211710264
"676","treatment","block 2",1,"2","4536",1.4636200258143,"md_as_08",0.450536140445413,20,"behavior",-0.464914175721805
"677","treatment","block 2",2,"1","3534",-0.0967364642387931,"md_as_08",0.450536140445413,20,"behavior",-0.511321372825169
"678","treatment","block 2",3,"2","3277",1.34944759971286,"md_as_08",0.450536140445413,20,"behavior",0.324008175035371
"679","treatment","block 2",4,"2","1290",1.5397349765486,"md_as_08",0.450536140445413,20,"behavior",0.0455649924151911
"680","treatment","block 2",5,"2","2400",1.5397349765486,"md_as_08",0.450536140445413,20,"behavior",-0.325692584411715
"681","treatment","block 2",6,"2","1849",1.69196487801719,"md_as_08",0.450536140445413,20,"behavior",-0.232878190204989
"682","treatment","block 2",7,"2","4283",1.5397349765486,"md_as_08",0.450536140445413,20,"behavior",-0.0936565988948988
"683","treatment","block 2",8,"2","3512",1.6158499272829,"md_as_08",0.450536140445413,20,"behavior",-0.140063795998262
"684","treatment","block 2",9,"1","2248",-0.134793939605942,"md_as_08",0.450536140445413,20,"behavior",-0.186470993101625
"685","treatment","block 2",10,"2","3678",1.5397349765486,"md_as_08",0.450536140445413,20,"behavior",0.324008175035371
"686","treatment","block 2",11,"1","2027",-0.17285141497309,"md_as_08",0.450536140445413,20,"behavior",-0.140063795998262
"687","treatment","block 2",12,"2","2228",1.65390740265005,"md_as_08",0.450536140445413,20,"behavior",0.277600977932008
"688","treatment","block 2",13,"2","2103",1.50167750118145,"md_as_08",0.450536140445413,20,"behavior",-0.0936565988948988
"689","treatment","block 2",14,"2","1865",1.57779245191575,"md_as_08",0.450536140445413,20,"behavior",-0.000842204688172226
"690","treatment","block 2",15,"2","3613",1.50167750118145,"md_as_08",0.450536140445413,20,"behavior",-0.0936565988948988
"691","treatment","block 2",16,"2","4183",1.5397349765486,"md_as_08",0.450536140445413,20,"behavior",-0.140063795998262
"692","treatment","block 2",17,"1","5205",0.0174359618626529,"md_as_08",0.450536140445413,20,"behavior",-0.000842204688172226
"693","treatment","block 2",18,"2","3388",1.73002235338434,"md_as_08",0.450536140445413,20,"behavior",0.509636963448824
"694","treatment","block 2",19,"2","4766",1.69196487801719,"md_as_08",0.450536140445413,20,"behavior",0.0919721895185544
"695","treatment","block 2",20,"2","3979",1.69196487801719,"md_as_08",0.450536140445413,20,"behavior",-0.0472494017915355
"696","treatment","block 2",21,"1","4437",-0.0586789888716444,"md_as_08",0.450536140445413,20,"behavior",-0.0472494017915355
"697","treatment","block 2",22,"2","3910",1.6158499272829,"md_as_08",0.450536140445413,20,"behavior",0.231193780828644
"698","treatment","block 2",23,"2","3720",1.6158499272829,"md_as_08",0.450536140445413,20,"behavior",0.184786583725281
"699","treatment","block 2",24,"2","2914",1.6158499272829,"md_as_08",0.450536140445413,20,"behavior",-0.000842204688172226
"700","treatment","block 2",25,"2","2951",1.69196487801719,"md_as_08",0.450536140445413,20,"behavior",-0.0936565988948988
"701","treatment","block 1",1,"1","2952",-0.705656070113172,"md_as_09",1.71550299631138,18,"behavior",0.834487343172367
"702","treatment","block 1",2,"2","2749",1.69196487801719,"md_as_09",1.71550299631138,18,"behavior",-0.000842204688172226
"703","treatment","block 1",3,"1","3775",-1.50486305282329,"md_as_09",1.71550299631138,18,"behavior",1.43778090551609
"704","treatment","block 1",4,"1","2378",-0.439253742543131,"md_as_09",1.71550299631138,18,"behavior",0.370415372138734
"705","treatment","block 1",5,"1","2902",-1.61903547892474,"md_as_09",1.71550299631138,18,"behavior",1.62340969392954
"706","treatment","block 1",6,"1","1881",-0.0967364642387931,"md_as_09",1.71550299631138,18,"behavior",0.602451357655551
"707","treatment","block 1",7,"1","2850",-1.23846072525325,"md_as_09",1.71550299631138,18,"behavior",1.66981689103291
"708","treatment","block 1",8,"1","1364",-0.363138791808834,"md_as_09",1.71550299631138,18,"behavior",0.834487343172367
"709","treatment","block 1",9,"2","2981",1.95836720558724,"md_as_09",1.71550299631138,18,"behavior",1.34496651130936
"710","treatment","block 1",10,"1","2075",-1.08623082378466,"md_as_09",1.71550299631138,18,"behavior",1.15933772289591
"711","treatment","block 1",11,"2","2997",1.92030973022009,"md_as_09",1.71550299631138,18,"behavior",0.834487343172367
"712","treatment","block 1",12,"1","3875",-0.363138791808834,"md_as_09",1.71550299631138,18,"behavior",1.53059529972282
"713","treatment","block 1",13,"1","4003",-0.553426168644577,"md_as_09",1.71550299631138,18,"behavior",0.138379386621918
"714","treatment","block 1",14,"1","3452",-1.23846072525325,"md_as_09",1.71550299631138,18,"behavior",1.20574491999927
"715","treatment","block 1",15,"1","2381",-0.325081316441685,"md_as_09",1.71550299631138,18,"behavior",0.788080146069004
"716","treatment","block 1",16,"1","3104",-0.0586789888716444,"md_as_09",1.71550299631138,18,"behavior",-0.325692584411715
"717","treatment","block 1",17,"2","3086",1.80613730411864,"md_as_09",1.71550299631138,18,"behavior",0.463229766345461
"718","treatment","block 1",18,"1","3035",-0.591483644011726,"md_as_09",1.71550299631138,18,"behavior",1.20574491999927
"719","treatment","block 1",19,"1","1190",0.283838289432694,"md_as_09",1.71550299631138,18,"behavior",0.184786583725281
"720","treatment","block 1",20,"1","3400",-0.0586789888716444,"md_as_09",1.71550299631138,18,"behavior",0.184786583725281
"721","treatment","block 1",21,"2","1438",1.99642468095438,"md_as_09",1.71550299631138,18,"behavior",0.880894540275731
"722","treatment","block 1",22,"1","1918",-1.2765182006204,"md_as_09",1.71550299631138,18,"behavior",1.48418810261945
"723","treatment","block 1",23,"1","3468",-0.629541119378875,"md_as_09",1.71550299631138,18,"behavior",0.509636963448824
"724","treatment","block 1",24,"1","2183",-0.0967364642387931,"md_as_09",1.71550299631138,18,"behavior",0.695265751862277
"725","treatment","block 1",25,"1","2630",-0.17285141497309,"md_as_09",1.71550299631138,18,"behavior",0.556044160552188
"726","treatment","block 2",1,"2","3263",2.11059710705583,"md_as_09",1.71550299631138,18,"behavior",1.43778090551609
"727","treatment","block 2",2,"1","3466",-0.895943446948915,"md_as_09",1.71550299631138,18,"behavior",1.76263128523963
"728","treatment","block 2",3,"2","3753",1.34944759971286,"md_as_09",1.71550299631138,18,"behavior",1.02011613158582
"729","treatment","block 2",4,"2","2253",1.69196487801719,"md_as_09",1.71550299631138,18,"behavior",1.11293052579255
"730","treatment","block 2",5,"2","912",2.03448215632153,"md_as_09",1.71550299631138,18,"behavior",0.788080146069004
"731","treatment","block 2",6,"2","1976",1.92030973022009,"md_as_09",1.71550299631138,18,"behavior",1.34496651130936
"732","treatment","block 2",7,"2","3468",1.80613730411864,"md_as_09",1.71550299631138,18,"behavior",-1.30024372358234
"733","treatment","block 2",8,"2","1905",2.11059710705583,"md_as_09",1.71550299631138,18,"behavior",1.66981689103291
"734","treatment","block 2",9,"1","2534",-1.16234577451896,"md_as_09",1.71550299631138,18,"behavior",1.43778090551609
"735","treatment","block 2",10,"2","3738",1.95836720558724,"md_as_09",1.71550299631138,18,"behavior",0.927301737379094
"736","treatment","block 2",11,"1","2731",-0.553426168644577,"md_as_09",1.71550299631138,18,"behavior",1.39137370841273
"737","treatment","block 2",12,"2","2689",1.73002235338434,"md_as_09",1.71550299631138,18,"behavior",0.370415372138734
"738","treatment","block 2",13,"2","1036",2.11059710705583,"md_as_09",1.71550299631138,18,"behavior",0.927301737379094
"739","treatment","block 2",14,"2","4790",1.95836720558724,"md_as_09",1.71550299631138,18,"behavior",1.39137370841273
"740","treatment","block 2",15,"2","3823",1.84419477948579,"md_as_09",1.71550299631138,18,"behavior",1.66981689103291
"741","treatment","block 2",16,"2","4082",1.84419477948579,"md_as_09",1.71550299631138,18,"behavior",1.66981689103291
"742","treatment","block 2",17,"1","3281",-1.12428829915181,"md_as_09",1.71550299631138,18,"behavior",1.39137370841273
"743","treatment","block 2",18,"2","3041",1.95836720558724,"md_as_09",1.71550299631138,18,"behavior",0.973708934482457
"744","treatment","block 2",19,"2","3000",1.80613730411864,"md_as_09",1.71550299631138,18,"behavior",1.71622408813627
"745","treatment","block 2",20,"2","3233",2.03448215632153,"md_as_09",1.71550299631138,18,"behavior",1.71622408813627
"746","treatment","block 2",21,"1","2130",-1.01011587305036,"md_as_09",1.71550299631138,18,"behavior",1.34496651130936
"747","treatment","block 2",22,"2","2503",1.5397349765486,"md_as_09",1.71550299631138,18,"behavior",1.06652332868918
"748","treatment","block 2",23,"2","861",2.11059710705583,"md_as_09",1.71550299631138,18,"behavior",1.66981689103291
"749","treatment","block 2",24,"2","1479",2.11059710705583,"md_as_09",1.71550299631138,18,"behavior",1.62340969392954
"750","treatment","block 2",25,"2","1798",2.11059710705583,"md_as_09",1.71550299631138,18,"behavior",1.76263128523963
"751","control","block 1",1,"1","1661",-1.2004032498861,"md_as_09",1.71550299631138,18,"behavior",1.06652332868918
"752","control","block 1",2,"2","1197",2.11059710705583,"md_as_09",1.71550299631138,18,"behavior",0.463229766345461
"753","control","block 1",3,"1","2580",-1.16234577451896,"md_as_09",1.71550299631138,18,"behavior",1.25215211710264
"754","control","block 1",4,"2","1118",2.11059710705583,"md_as_09",1.71550299631138,18,"behavior",0.556044160552188
"755","control","block 1",5,"1","3418",-1.428748102089,"md_as_09",1.71550299631138,18,"behavior",0.370415372138734
"756","control","block 1",6,"2","1999",1.88225225485294,"md_as_09",1.71550299631138,18,"behavior",0.138379386621918
"757","control","block 1",7,"1","983",-1.69515042965904,"md_as_09",1.71550299631138,18,"behavior",1.298559314206
"758","control","block 1",8,"2","2827",1.92030973022009,"md_as_09",1.71550299631138,18,"behavior",0.973708934482457
"759","control","block 1",9,"1","3521",-1.12428829915181,"md_as_09",1.71550299631138,18,"behavior",1.57700249682618
"760","control","block 1",10,"2","3663",1.73002235338434,"md_as_09",1.71550299631138,18,"behavior",1.20574491999927
"761","control","block 1",11,"1","3530",-1.01011587305036,"md_as_09",1.71550299631138,18,"behavior",1.76263128523963
"762","control","block 1",12,"1","2077",-1.46680557745615,"md_as_09",1.71550299631138,18,"behavior",1.15933772289591
"763","control","block 1",13,"2","4056",1.88225225485294,"md_as_09",1.71550299631138,18,"behavior",0.324008175035371
"764","control","block 1",14,"2","1203",2.11059710705583,"md_as_09",1.71550299631138,18,"behavior",1.76263128523963
"765","control","block 1",15,"1","2546",-0.629541119378875,"md_as_09",1.71550299631138,18,"behavior",1.57700249682618
"766","control","block 1",16,"2","1258",1.95836720558724,"md_as_09",1.71550299631138,18,"behavior",0.834487343172367
"767","control","block 1",17,"1","1822",-0.895943446948915,"md_as_09",1.71550299631138,18,"behavior",1.48418810261945
"768","control","block 1",18,"1","1539",-0.553426168644577,"md_as_09",1.71550299631138,18,"behavior",0.927301737379094
"769","control","block 1",19,"2","1875",1.99642468095438,"md_as_09",1.71550299631138,18,"behavior",0.695265751862277
"770","control","block 1",20,"2","1792",2.11059710705583,"md_as_09",1.71550299631138,18,"behavior",1.53059529972282
"771","control","block 1",21,"1","2989",-1.01011587305036,"md_as_09",1.71550299631138,18,"behavior",1.34496651130936
"772","control","block 1",22,"2","1297",2.11059710705583,"md_as_09",1.71550299631138,18,"behavior",0.648858554758914
"773","control","block 1",23,"1","2270",-0.819828496214618,"md_as_09",1.71550299631138,18,"behavior",1.57700249682618
"774","control","block 1",24,"2","2121",1.95836720558724,"md_as_09",1.71550299631138,18,"behavior",0.463229766345461
"775","control","block 1",25,"2","3237",2.11059710705583,"md_as_09",1.71550299631138,18,"behavior",1.66981689103291
"776","control","block 2",1,"1","2371",-0.934000922316064,"md_as_09",1.71550299631138,18,"behavior",1.15933772289591
"777","control","block 2",2,"2","3794",2.03448215632153,"md_as_09",1.71550299631138,18,"behavior",1.02011613158582
"778","control","block 2",3,"1","1824",-0.0967364642387931,"md_as_09",1.71550299631138,18,"behavior",1.57700249682618
"779","control","block 2",4,"2","2546",2.11059710705583,"md_as_09",1.71550299631138,18,"behavior",1.06652332868918
"780","control","block 2",5,"1","2834",-0.972058397683213,"md_as_09",1.71550299631138,18,"behavior",1.34496651130936
"781","control","block 2",6,"2","1069",2.11059710705583,"md_as_09",1.71550299631138,18,"behavior",0.648858554758914
"782","control","block 2",7,"1","2490",-1.428748102089,"md_as_09",1.71550299631138,18,"behavior",1.48418810261945
"783","control","block 2",8,"2","3005",2.11059710705583,"md_as_09",1.71550299631138,18,"behavior",0.880894540275731
"784","control","block 2",9,"1","2295",-1.69515042965904,"md_as_09",1.71550299631138,18,"behavior",1.57700249682618
"785","control","block 2",10,"2","2932",2.11059710705583,"md_as_09",1.71550299631138,18,"behavior",0.602451357655551
"786","control","block 2",11,"1","2924",-0.934000922316064,"md_as_09",1.71550299631138,18,"behavior",1.76263128523963
"787","control","block 2",12,"1","3360",-1.46680557745615,"md_as_09",1.71550299631138,18,"behavior",1.15933772289591
"788","control","block 2",13,"1","1275",-1.3526331513547,"md_as_09",1.71550299631138,18,"behavior",1.20574491999927
"789","control","block 2",14,"2","2966",2.11059710705583,"md_as_09",1.71550299631138,18,"behavior",0.788080146069004
"790","control","block 2",15,"1","3056",-0.934000922316064,"md_as_09",1.71550299631138,18,"behavior",1.57700249682618
"791","control","block 2",16,"2","1242",2.11059710705583,"md_as_09",1.71550299631138,18,"behavior",0.973708934482457
"792","control","block 2",17,"1","1947",-1.50486305282329,"md_as_09",1.71550299631138,18,"behavior",1.48418810261945
"793","control","block 2",18,"1","3051",-1.428748102089,"md_as_09",1.71550299631138,18,"behavior",0.463229766345461
"794","control","block 2",19,"2","3575",2.03448215632153,"md_as_09",1.71550299631138,18,"behavior",0.741672948965641
"795","control","block 2",20,"2","4438",1.95836720558724,"md_as_09",1.71550299631138,18,"behavior",1.53059529972282
"796","control","block 2",21,"1","1793",-1.3526331513547,"md_as_09",1.71550299631138,18,"behavior",1.71622408813627
"797","control","block 2",22,"2","1760",2.03448215632153,"md_as_09",1.71550299631138,18,"behavior",0.973708934482457
"798","control","block 2",23,"1","3598",-1.3526331513547,"md_as_09",1.71550299631138,18,"behavior",1.66981689103291
"799","control","block 2",24,"2","3139",2.03448215632153,"md_as_09",1.71550299631138,18,"behavior",0.648858554758914
"800","control","block 2",25,"2","1202",1.95836720558724,"md_as_09",1.71550299631138,18,"behavior",1.66981689103291
"801","control","block 1",1,"1","2362",-1.23846072525325,"md_as_10",0.450536140445413,11,"behavior",-1.30024372358234
"802","control","block 1",2,"2","2003",0.0174359618626529,"md_as_10",0.450536140445413,11,"behavior",-1.62509410330589
"803","control","block 1",3,"1","3153",-0.934000922316064,"md_as_10",0.450536140445413,11,"behavior",-0.000842204688172226
"804","control","block 1",4,"2","2096",0.131608387964099,"md_as_10",0.450536140445413,11,"behavior",-0.279285387308352
"805","control","block 1",5,"1","1923",-1.54292052819044,"md_as_10",0.450536140445413,11,"behavior",-1.53227970909916
"806","control","block 1",6,"2","2609",-0.553426168644577,"md_as_10",0.450536140445413,11,"behavior",-0.743357358341985
"807","control","block 1",7,"1","2457",-1.12428829915181,"md_as_10",0.450536140445413,11,"behavior",-0.464914175721805
"808","control","block 1",8,"2","1679",-0.134793939605942,"md_as_10",0.450536140445413,11,"behavior",-0.743357358341985
"809","control","block 1",9,"1","1333",-0.857885971581767,"md_as_10",0.450536140445413,11,"behavior",-0.696950161238622
"810","control","block 1",10,"2","3018",-0.819828496214618,"md_as_10",0.450536140445413,11,"behavior",-0.882578949652075
"811","control","block 1",11,"1","1733",-0.781771020847469,"md_as_10",0.450536140445413,11,"behavior",-1.02180054096217
"812","control","block 1",12,"1","3151",-0.591483644011726,"md_as_10",0.450536140445413,11,"behavior",-0.696950161238622
"813","control","block 1",13,"2","2434",0.169665863331248,"md_as_10",0.450536140445413,11,"behavior",-1.06820773806553
"814","control","block 1",14,"2","1988",-0.743713545480321,"md_as_10",0.450536140445413,11,"behavior",-0.789764555445349
"815","control","block 1",15,"1","3311",-0.934000922316064,"md_as_10",0.450536140445413,11,"behavior",-0.743357358341985
"816","control","block 1",16,"2","1551",-0.743713545480321,"md_as_10",0.450536140445413,11,"behavior",-0.928986146755438
"817","control","block 1",17,"1","1331",-0.934000922316064,"md_as_10",0.450536140445413,11,"behavior",-1.06820773806553
"818","control","block 1",18,"1","2232",-0.895943446948915,"md_as_10",0.450536140445413,11,"behavior",-0.604135767031895
"819","control","block 1",19,"2","2862",-0.287023841074536,"md_as_10",0.450536140445413,11,"behavior",-1.11461493516889
"820","control","block 1",20,"2","1005",-0.934000922316064,"md_as_10",0.450536140445413,11,"behavior",-1.11461493516889
"821","control","block 1",21,"1","3597",-0.895943446948915,"md_as_10",0.450536140445413,11,"behavior",-1.30024372358234
"822","control","block 1",22,"2","4082",-0.363138791808834,"md_as_10",0.450536140445413,11,"behavior",-0.464914175721805
"823","control","block 1",23,"1","2720",-1.04817334841751,"md_as_10",0.450536140445413,11,"behavior",-0.279285387308352
"824","control","block 1",24,"2","3279",-0.17285141497309,"md_as_10",0.450536140445413,11,"behavior",-0.186470993101625
"825","control","block 1",25,"2","1478",-0.287023841074536,"md_as_10",0.450536140445413,11,"behavior",-0.511321372825169
"826","control","block 2",1,"1","2268",-0.895943446948915,"md_as_10",0.450536140445413,11,"behavior",-0.186470993101625
"827","control","block 2",2,"2","1381",0.321895764799842,"md_as_10",0.450536140445413,11,"behavior",-0.325692584411715
"828","control","block 2",3,"1","2733",-0.363138791808834,"md_as_10",0.450536140445413,11,"behavior",-0.0472494017915355
"829","control","block 2",4,"2","2924",-0.0586789888716444,"md_as_10",0.450536140445413,11,"behavior",-0.186470993101625
