"","condition","block_no","trial_no","trial_type","rt","emotion_rating","id","closeness","betas_PM_wtreatMINcon_TPJ","betas_PM_wtreatMINcon_IFG","facet","score"
"1","treatment","block 1",1,"1","5743",-0.309814785684319,"saulin_01_vp_01",0.184383078411893,0.096226,-0.019863,"EC",1.10766324611516
"2","treatment","block 1",1,"1","5743",-0.309814785684319,"saulin_01_vp_01",0.184383078411893,0.096226,-0.019863,"PT",0.699097381718325
"3","treatment","block 1",2,"2","5464",0.343463343222505,"saulin_01_vp_01",0.280781573688896,0.096226,-0.019863,"EC",1.10766324611516
"4","treatment","block 1",2,"2","5464",0.343463343222505,"saulin_01_vp_01",0.280781573688896,0.096226,-0.019863,"PT",0.699097381718325
"5","treatment","block 1",3,"1","4098",-0.788885413549324,"saulin_01_vp_01",-0.0566131597806136,0.096226,-0.019863,"EC",1.10766324611516
"6","treatment","block 1",3,"1","4098",-0.788885413549324,"saulin_01_vp_01",-0.0566131597806136,0.096226,-0.019863,"PT",0.699097381718325
"7","treatment","block 1",4,"1","2227",-0.745333538288869,"saulin_01_vp_01",0.184383078411893,0.096226,-0.019863,"EC",1.10766324611516
"8","treatment","block 1",4,"1","2227",-0.745333538288869,"saulin_01_vp_01",0.184383078411893,0.096226,-0.019863,"PT",0.699097381718325
"9","treatment","block 1",5,"1","4859",-1.18085229089342,"saulin_01_vp_01",0.4253793166044,0.096226,-0.019863,"EC",1.10766324611516
"10","treatment","block 1",5,"1","4859",-1.18085229089342,"saulin_01_vp_01",0.4253793166044,0.096226,-0.019863,"PT",0.699097381718325
"11","treatment","block 1",6,"1","2454",-0.963092914591143,"saulin_01_vp_01",0.666375554796906,0.096226,-0.019863,"EC",1.10766324611516
"12","treatment","block 1",6,"1","2454",-0.963092914591143,"saulin_01_vp_01",0.666375554796906,0.096226,-0.019863,"PT",0.699097381718325
"13","treatment","block 1",7,"1","4746",-0.963092914591143,"saulin_01_vp_01",0.666375554796906,0.096226,-0.019863,"EC",1.10766324611516
"14","treatment","block 1",7,"1","4746",-0.963092914591143,"saulin_01_vp_01",0.666375554796906,0.096226,-0.019863,"PT",0.699097381718325
"15","treatment","block 1",8,"1","3065",-1.18085229089342,"saulin_01_vp_01",0.907371792989413,0.096226,-0.019863,"EC",1.10766324611516
"16","treatment","block 1",8,"1","3065",-1.18085229089342,"saulin_01_vp_01",0.907371792989413,0.096226,-0.019863,"PT",0.699097381718325
"17","treatment","block 1",9,"2","4666",-0.658229787767959,"saulin_01_vp_01",0.907371792989413,0.096226,-0.019863,"EC",1.10766324611516
"18","treatment","block 1",9,"2","4666",-0.658229787767959,"saulin_01_vp_01",0.907371792989413,0.096226,-0.019863,"PT",0.699097381718325
"19","treatment","block 1",10,"1","4053",-0.963092914591143,"saulin_01_vp_01",0.666375554796906,0.096226,-0.019863,"EC",1.10766324611516
"20","treatment","block 1",10,"1","4053",-0.963092914591143,"saulin_01_vp_01",0.666375554796906,0.096226,-0.019863,"PT",0.699097381718325
"21","treatment","block 1",11,"2","3025",-0.527574161986594,"saulin_01_vp_01",0.907371792989413,0.096226,-0.019863,"EC",1.10766324611516
"22","treatment","block 1",11,"2","3025",-0.527574161986594,"saulin_01_vp_01",0.907371792989413,0.096226,-0.019863,"PT",0.699097381718325
"23","treatment","block 1",12,"1","6236",-1.18085229089342,"saulin_01_vp_01",0.618176307158405,0.096226,-0.019863,"EC",1.10766324611516
"24","treatment","block 1",12,"1","6236",-1.18085229089342,"saulin_01_vp_01",0.618176307158405,0.096226,-0.019863,"PT",0.699097381718325
"25","treatment","block 1",13,"1","5102",-0.745333538288869,"saulin_01_vp_01",0.907371792989413,0.096226,-0.019863,"EC",1.10766324611516
"26","treatment","block 1",13,"1","5102",-0.745333538288869,"saulin_01_vp_01",0.907371792989413,0.096226,-0.019863,"PT",0.699097381718325
"27","treatment","block 1",14,"1","3168",-0.745333538288869,"saulin_01_vp_01",0.907371792989413,0.096226,-0.019863,"EC",1.10766324611516
"28","treatment","block 1",14,"1","3168",-0.745333538288869,"saulin_01_vp_01",0.907371792989413,0.096226,-0.019863,"PT",0.699097381718325
"29","treatment","block 1",15,"1","1672",-0.963092914591143,"saulin_01_vp_01",0.666375554796906,0.096226,-0.019863,"EC",1.10766324611516
"30","treatment","block 1",15,"1","1672",-0.963092914591143,"saulin_01_vp_01",0.666375554796906,0.096226,-0.019863,"PT",0.699097381718325
"31","treatment","block 1",16,"1","1499",-0.963092914591143,"saulin_01_vp_01",0.907371792989413,0.096226,-0.019863,"EC",1.10766324611516
"32","treatment","block 1",16,"1","1499",-0.963092914591143,"saulin_01_vp_01",0.907371792989413,0.096226,-0.019863,"PT",0.699097381718325
"33","treatment","block 1",17,"2","2688",-0.571126037247049,"saulin_01_vp_01",0.907371792989413,0.096226,-0.019863,"EC",1.10766324611516
"34","treatment","block 1",17,"2","2688",-0.571126037247049,"saulin_01_vp_01",0.907371792989413,0.096226,-0.019863,"PT",0.699097381718325
"35","treatment","block 1",18,"1","4409",-1.18085229089342,"saulin_01_vp_01",0.907371792989413,0.096226,-0.019863,"EC",1.10766324611516
"36","treatment","block 1",18,"1","4409",-1.18085229089342,"saulin_01_vp_01",0.907371792989413,0.096226,-0.019863,"PT",0.699097381718325
"37","treatment","block 1",19,"1","1958",-1.18085229089342,"saulin_01_vp_01",0.907371792989413,0.096226,-0.019863,"EC",1.10766324611516
"38","treatment","block 1",19,"1","1958",-1.18085229089342,"saulin_01_vp_01",0.907371792989413,0.096226,-0.019863,"PT",0.699097381718325
"39","treatment","block 1",20,"1","2338",-0.963092914591143,"saulin_01_vp_01",1.38936426937443,0.096226,-0.019863,"EC",1.10766324611516
"40","treatment","block 1",20,"1","2338",-0.963092914591143,"saulin_01_vp_01",1.38936426937443,0.096226,-0.019863,"PT",0.699097381718325
"41","treatment","block 1",21,"2","5536",-0.658229787767959,"saulin_01_vp_01",1.38936426937443,0.096226,-0.019863,"EC",1.10766324611516
"42","treatment","block 1",21,"2","5536",-0.658229787767959,"saulin_01_vp_01",1.38936426937443,0.096226,-0.019863,"PT",0.699097381718325
"43","treatment","block 1",22,"1","4427",-0.745333538288869,"saulin_01_vp_01",0.907371792989413,0.096226,-0.019863,"EC",1.10766324611516
"44","treatment","block 1",22,"1","4427",-0.745333538288869,"saulin_01_vp_01",0.907371792989413,0.096226,-0.019863,"PT",0.699097381718325
"45","treatment","block 1",23,"1","3586",-0.963092914591143,"saulin_01_vp_01",0.618176307158405,0.096226,-0.019863,"EC",1.10766324611516
"46","treatment","block 1",23,"1","3586",-0.963092914591143,"saulin_01_vp_01",0.618176307158405,0.096226,-0.019863,"PT",0.699097381718325
"47","treatment","block 1",24,"1","4522",-1.18085229089342,"saulin_01_vp_01",1.58216125992843,0.096226,-0.019863,"EC",1.10766324611516
"48","treatment","block 1",24,"1","4522",-1.18085229089342,"saulin_01_vp_01",1.58216125992843,0.096226,-0.019863,"PT",0.699097381718325
"49","treatment","block 1",25,"1","5582",-0.963092914591143,"saulin_01_vp_01",1.38936426937443,0.096226,-0.019863,"EC",1.10766324611516
"50","treatment","block 1",25,"1","5582",-0.963092914591143,"saulin_01_vp_01",1.38936426937443,0.096226,-0.019863,"PT",0.699097381718325
"51","treatment","block 1",1,"1","3525",0.12570396692023,"saulin_01_vp_02",0.039785335496389,0.62036,0.52128,"EC",0.71871279328083
"52","treatment","block 1",1,"1","3525",0.12570396692023,"saulin_01_vp_02",0.039785335496389,0.62036,0.52128,"PT",1.02068217730876
"53","treatment","block 1",2,"2","3512",0.12570396692023,"saulin_01_vp_02",-0.29760939797312,0.62036,0.52128,"EC",0.71871279328083
"54","treatment","block 1",2,"2","3512",0.12570396692023,"saulin_01_vp_02",-0.29760939797312,0.62036,0.52128,"PT",1.02068217730876
"55","treatment","block 1",3,"1","3491",0.0821520916597754,"saulin_01_vp_02",-0.0566131597806136,0.62036,0.52128,"EC",0.71871279328083
"56","treatment","block 1",3,"1","3491",0.0821520916597754,"saulin_01_vp_02",-0.0566131597806136,0.62036,0.52128,"PT",1.02068217730876
"57","treatment","block 1",4,"1","2953",-0.0920554093820444,"saulin_01_vp_02",-0.0566131597806136,0.62036,0.52128,"EC",0.71871279328083
"58","treatment","block 1",4,"1","2953",-0.0920554093820444,"saulin_01_vp_02",-0.0566131597806136,0.62036,0.52128,"PT",1.02068217730876
"59","treatment","block 1",5,"1","3022",0.12570396692023,"saulin_01_vp_02",0.039785335496389,0.62036,0.52128,"EC",0.71871279328083
"60","treatment","block 1",5,"1","3022",0.12570396692023,"saulin_01_vp_02",0.039785335496389,0.62036,0.52128,"PT",1.02068217730876
"61","treatment","block 1",6,"1","2782",-0.0920554093820444,"saulin_01_vp_02",0.136183830773392,0.62036,0.52128,"EC",0.71871279328083
"62","treatment","block 1",6,"1","2782",-0.0920554093820444,"saulin_01_vp_02",0.136183830773392,0.62036,0.52128,"PT",1.02068217730876
"63","treatment","block 1",7,"1","4195",-0.0920554093820444,"saulin_01_vp_02",-0.0566131597806136,0.62036,0.52128,"EC",0.71871279328083
"64","treatment","block 1",7,"1","4195",-0.0920554093820444,"saulin_01_vp_02",-0.0566131597806136,0.62036,0.52128,"PT",1.02068217730876
"65","treatment","block 1",8,"1","1924",-0.0920554093820444,"saulin_01_vp_02",-0.29760939797312,0.62036,0.52128,"EC",0.71871279328083
"66","treatment","block 1",8,"1","1924",-0.0920554093820444,"saulin_01_vp_02",-0.29760939797312,0.62036,0.52128,"PT",1.02068217730876
"67","treatment","block 1",9,"2","2642",0.12570396692023,"saulin_01_vp_02",-0.29760939797312,0.62036,0.52128,"EC",0.71871279328083
"68","treatment","block 1",9,"2","2642",0.12570396692023,"saulin_01_vp_02",-0.29760939797312,0.62036,0.52128,"PT",1.02068217730876
"69","treatment","block 1",10,"1","2927",0.12570396692023,"saulin_01_vp_02",-1.74358682712816,0.62036,0.52128,"EC",0.71871279328083
"70","treatment","block 1",10,"1","2927",0.12570396692023,"saulin_01_vp_02",-1.74358682712816,0.62036,0.52128,"PT",1.02068217730876
"71","treatment","block 1",11,"2","1986",0.12570396692023,"saulin_01_vp_02",-0.0566131597806136,0.62036,0.52128,"EC",0.71871279328083
"72","treatment","block 1",11,"2","1986",0.12570396692023,"saulin_01_vp_02",-0.0566131597806136,0.62036,0.52128,"PT",1.02068217730876
"73","treatment","block 1",12,"1","4512",-0.00495165886113449,"saulin_01_vp_02",0.039785335496389,0.62036,0.52128,"EC",0.71871279328083
"74","treatment","block 1",12,"1","4512",-0.00495165886113449,"saulin_01_vp_02",0.039785335496389,0.62036,0.52128,"PT",1.02068217730876
"75","treatment","block 1",13,"1","1709",0.12570396692023,"saulin_01_vp_02",-0.0566131597806136,0.62036,0.52128,"EC",0.71871279328083
"76","treatment","block 1",13,"1","1709",0.12570396692023,"saulin_01_vp_02",-0.0566131597806136,0.62036,0.52128,"PT",1.02068217730876
"77","treatment","block 1",14,"1","3037",0.12570396692023,"saulin_01_vp_02",-0.0566131597806136,0.62036,0.52128,"EC",0.71871279328083
"78","treatment","block 1",14,"1","3037",0.12570396692023,"saulin_01_vp_02",-0.0566131597806136,0.62036,0.52128,"PT",1.02068217730876
"79","treatment","block 1",15,"1","3988",0.12570396692023,"saulin_01_vp_02",-0.0566131597806136,0.62036,0.52128,"EC",0.71871279328083
"80","treatment","block 1",15,"1","3988",0.12570396692023,"saulin_01_vp_02",-0.0566131597806136,0.62036,0.52128,"PT",1.02068217730876
"81","treatment","block 1",16,"1","4275",0.12570396692023,"saulin_01_vp_02",-0.0566131597806136,0.62036,0.52128,"EC",0.71871279328083
"82","treatment","block 1",16,"1","4275",0.12570396692023,"saulin_01_vp_02",-0.0566131597806136,0.62036,0.52128,"PT",1.02068217730876
"83","treatment","block 1",17,"2","2823",0.12570396692023,"saulin_01_vp_02",-0.0566131597806136,0.62036,0.52128,"EC",0.71871279328083
"84","treatment","block 1",17,"2","2823",0.12570396692023,"saulin_01_vp_02",-0.0566131597806136,0.62036,0.52128,"PT",1.02068217730876
"85","treatment","block 1",18,"1","5047",-0.00495165886113449,"saulin_01_vp_02",-0.0566131597806136,0.62036,0.52128,"EC",0.71871279328083
"86","treatment","block 1",18,"1","5047",-0.00495165886113449,"saulin_01_vp_02",-0.0566131597806136,0.62036,0.52128,"PT",1.02068217730876
"87","treatment","block 1",19,"1","4867",0.0821520916597754,"saulin_01_vp_02",-0.0566131597806136,0.62036,0.52128,"EC",0.71871279328083
"88","treatment","block 1",19,"1","4867",0.0821520916597754,"saulin_01_vp_02",-0.0566131597806136,0.62036,0.52128,"PT",1.02068217730876
"89","treatment","block 1",20,"1","4562",0.0821520916597754,"saulin_01_vp_02",-0.104812407419115,0.62036,0.52128,"EC",0.71871279328083
"90","treatment","block 1",20,"1","4562",0.0821520916597754,"saulin_01_vp_02",-0.104812407419115,0.62036,0.52128,"PT",1.02068217730876
"91","treatment","block 1",21,"2","1876",0.12570396692023,"saulin_01_vp_02",-0.0566131597806136,0.62036,0.52128,"EC",0.71871279328083
"92","treatment","block 1",21,"2","1876",0.12570396692023,"saulin_01_vp_02",-0.0566131597806136,0.62036,0.52128,"PT",1.02068217730876
"93","treatment","block 1",22,"1","3900",-0.0920554093820444,"saulin_01_vp_02",-0.0566131597806136,0.62036,0.52128,"EC",0.71871279328083
"94","treatment","block 1",22,"1","3900",-0.0920554093820444,"saulin_01_vp_02",-0.0566131597806136,0.62036,0.52128,"PT",1.02068217730876
"95","treatment","block 1",23,"1","2642",0.12570396692023,"saulin_01_vp_02",-0.0566131597806136,0.62036,0.52128,"EC",0.71871279328083
"96","treatment","block 1",23,"1","2642",0.12570396692023,"saulin_01_vp_02",-0.0566131597806136,0.62036,0.52128,"PT",1.02068217730876
"97","treatment","block 1",24,"1","3510",0.12570396692023,"saulin_01_vp_02",-0.0566131597806136,0.62036,0.52128,"EC",0.71871279328083
"98","treatment","block 1",24,"1","3510",0.12570396692023,"saulin_01_vp_02",-0.0566131597806136,0.62036,0.52128,"PT",1.02068217730876
"99","treatment","block 1",25,"1","4155",0.12570396692023,"saulin_01_vp_02",-0.0566131597806136,0.62036,0.52128,"EC",0.71871279328083
"100","treatment","block 1",25,"1","4155",0.12570396692023,"saulin_01_vp_02",-0.0566131597806136,0.62036,0.52128,"PT",1.02068217730876
"101","treatment","block 1",1,"1","5089",0.12570396692023,"saulin_01_vp_03",-1.06879736018914,-0.15446,-0.21233,"EC",-0.448138565222164
"102","treatment","block 1",1,"1","5089",0.12570396692023,"saulin_01_vp_03",-1.06879736018914,-0.15446,-0.21233,"PT",-0.908826596233823
"103","treatment","block 1",2,"2","2200",-0.745333538288869,"saulin_01_vp_03",0.666375554796906,-0.15446,-0.21233,"EC",-0.448138565222164
"104","treatment","block 1",2,"2","2200",-0.745333538288869,"saulin_01_vp_03",0.666375554796906,-0.15446,-0.21233,"PT",-0.908826596233823
"105","treatment","block 1",3,"1","1678",-1.0066447898516,"saulin_01_vp_03",-0.29760939797312,-0.15446,-0.21233,"EC",-0.448138565222164
"106","treatment","block 1",3,"1","1678",-1.0066447898516,"saulin_01_vp_03",-0.29760939797312,-0.15446,-0.21233,"PT",-0.908826596233823
"107","treatment","block 1",4,"1","4450",-0.527574161986594,"saulin_01_vp_03",0.907371792989413,-0.15446,-0.21233,"EC",-0.448138565222164
"108","treatment","block 1",4,"1","4450",-0.527574161986594,"saulin_01_vp_03",0.907371792989413,-0.15446,-0.21233,"PT",-0.908826596233823
"109","treatment","block 1",5,"1","3919",-0.875989164070233,"saulin_01_vp_03",0.521777811881402,-0.15446,-0.21233,"EC",-0.448138565222164
"110","treatment","block 1",5,"1","3919",-0.875989164070233,"saulin_01_vp_03",0.521777811881402,-0.15446,-0.21233,"PT",-0.908826596233823
"111","treatment","block 1",6,"1","2725",-0.309814785684319,"saulin_01_vp_03",0.184383078411893,-0.15446,-0.21233,"EC",-0.448138565222164
"112","treatment","block 1",6,"1","2725",-0.309814785684319,"saulin_01_vp_03",0.184383078411893,-0.15446,-0.21233,"PT",-0.908826596233823
"113","treatment","block 1",7,"1","4275",-0.963092914591143,"saulin_01_vp_03",0.666375554796906,-0.15446,-0.21233,"EC",-0.448138565222164
"114","treatment","block 1",7,"1","4275",-0.963092914591143,"saulin_01_vp_03",0.666375554796906,-0.15446,-0.21233,"PT",-0.908826596233823
"115","treatment","block 1",8,"1","5011",-1.39861166719569,"saulin_01_vp_03",0.377180068965898,-0.15446,-0.21233,"EC",-0.448138565222164
"116","treatment","block 1",8,"1","5011",-1.39861166719569,"saulin_01_vp_03",0.377180068965898,-0.15446,-0.21233,"PT",-0.908826596233823
"117","treatment","block 1",9,"2","3625",2.0855383536407,"saulin_01_vp_03",-0.779601874358133,-0.15446,-0.21233,"EC",-0.448138565222164
"118","treatment","block 1",9,"2","3625",2.0855383536407,"saulin_01_vp_03",-0.779601874358133,-0.15446,-0.21233,"PT",-0.908826596233823
"119","treatment","block 1",10,"1","1575",1.2145008484316,"saulin_01_vp_03",-0.683203379081131,-0.15446,-0.21233,"EC",-0.448138565222164
"120","treatment","block 1",10,"1","1575",1.2145008484316,"saulin_01_vp_03",-0.683203379081131,-0.15446,-0.21233,"PT",-0.908826596233823
"121","treatment","block 1",11,"2","6727",2.0855383536407,"saulin_01_vp_03",-1.30979359838165,-0.15446,-0.21233,"EC",-0.448138565222164
"122","treatment","block 1",11,"2","6727",2.0855383536407,"saulin_01_vp_03",-1.30979359838165,-0.15446,-0.21233,"PT",-0.908826596233823
"123","treatment","block 1",12,"1","5018",1.2145008484316,"saulin_01_vp_03",-1.02059811255064,-0.15446,-0.21233,"EC",-0.448138565222164
"124","treatment","block 1",12,"1","5018",1.2145008484316,"saulin_01_vp_03",-1.02059811255064,-0.15446,-0.21233,"PT",-0.908826596233823
"125","treatment","block 1",13,"1","4983",0.21280771744114,"saulin_01_vp_03",-0.29760939797312,-0.15446,-0.21233,"EC",-0.448138565222164
"126","treatment","block 1",13,"1","4983",0.21280771744114,"saulin_01_vp_03",-0.29760939797312,-0.15446,-0.21233,"PT",-0.908826596233823
"127","treatment","block 1",14,"1","4843",0.343463343222505,"saulin_01_vp_03",-0.779601874358133,-0.15446,-0.21233,"EC",-0.448138565222164
"128","treatment","block 1",14,"1","4843",0.343463343222505,"saulin_01_vp_03",-0.779601874358133,-0.15446,-0.21233,"PT",-0.908826596233823
"129","treatment","block 1",15,"1","4338",1.43226022473388,"saulin_01_vp_03",-1.50259058893565,-0.15446,-0.21233,"EC",-0.448138565222164
"130","treatment","block 1",15,"1","4338",1.43226022473388,"saulin_01_vp_03",-1.50259058893565,-0.15446,-0.21233,"PT",-0.908826596233823
"131","treatment","block 1",16,"1","3231",0.21280771744114,"saulin_01_vp_03",-0.29760939797312,-0.15446,-0.21233,"EC",-0.448138565222164
"132","treatment","block 1",16,"1","3231",0.21280771744114,"saulin_01_vp_03",-0.29760939797312,-0.15446,-0.21233,"PT",-0.908826596233823
"133","treatment","block 1",17,"2","7955",1.43226022473388,"saulin_01_vp_03",-0.779601874358133,-0.15446,-0.21233,"EC",-0.448138565222164
"134","treatment","block 1",17,"2","7955",1.43226022473388,"saulin_01_vp_03",-0.779601874358133,-0.15446,-0.21233,"PT",-0.908826596233823
"135","treatment","block 1",18,"1","4992",-0.309814785684319,"saulin_01_vp_03",0.184383078411893,-0.15446,-0.21233,"EC",-0.448138565222164
"136","treatment","block 1",18,"1","4992",-0.309814785684319,"saulin_01_vp_03",0.184383078411893,-0.15446,-0.21233,"PT",-0.908826596233823
"137","treatment","block 1",19,"1","3484",-1.39861166719569,"saulin_01_vp_03",0.184383078411893,-0.15446,-0.21233,"EC",-0.448138565222164
"138","treatment","block 1",19,"1","3484",-1.39861166719569,"saulin_01_vp_03",0.184383078411893,-0.15446,-0.21233,"PT",-0.908826596233823
"139","treatment","block 1",20,"1","4328",-0.963092914591143,"saulin_01_vp_03",0.666375554796906,-0.15446,-0.21233,"EC",-0.448138565222164
"140","treatment","block 1",20,"1","4328",-0.963092914591143,"saulin_01_vp_03",0.666375554796906,-0.15446,-0.21233,"PT",-0.908826596233823
"141","treatment","block 1",21,"2","4900",1.43226022473388,"saulin_01_vp_03",0.859172545350911,-0.15446,-0.21233,"EC",-0.448138565222164
"142","treatment","block 1",21,"2","4900",1.43226022473388,"saulin_01_vp_03",0.859172545350911,-0.15446,-0.21233,"PT",-0.908826596233823
"143","treatment","block 1",22,"1","2801",-1.39861166719569,"saulin_01_vp_03",1.14836803118192,-0.15446,-0.21233,"EC",-0.448138565222164
"144","treatment","block 1",22,"1","2801",-1.39861166719569,"saulin_01_vp_03",1.14836803118192,-0.15446,-0.21233,"PT",-0.908826596233823
"145","treatment","block 1",23,"1","1746",-1.65992291875842,"saulin_01_vp_03",1.14836803118192,-0.15446,-0.21233,"EC",-0.448138565222164
"146","treatment","block 1",23,"1","1746",-1.65992291875842,"saulin_01_vp_03",1.14836803118192,-0.15446,-0.21233,"PT",-0.908826596233823
"147","treatment","block 1",24,"1","2717",-2.05188979610252,"saulin_01_vp_03",1.63036050756693,-0.15446,-0.21233,"EC",-0.448138565222164
"148","treatment","block 1",24,"1","2717",-2.05188979610252,"saulin_01_vp_03",1.63036050756693,-0.15446,-0.21233,"PT",-0.908826596233823
"149","treatment","block 1",25,"1","5513",-1.74702666927933,"saulin_01_vp_03",0.666375554796906,-0.15446,-0.21233,"EC",-0.448138565222164
"150","treatment","block 1",25,"1","5513",-1.74702666927933,"saulin_01_vp_03",0.666375554796906,-0.15446,-0.21233,"PT",-0.908826596233823
"151","treatment","block 1",1,"1","3246",0.12570396692023,"saulin_01_vp_04",0.184383078411893,-0.042495,-0.26212,"EC",0.329762340446499
"152","treatment","block 1",1,"1","3246",0.12570396692023,"saulin_01_vp_04",0.184383078411893,-0.042495,-0.26212,"PT",0.0559277905374663
"153","treatment","block 1",2,"2","2583",0.778982095827055,"saulin_01_vp_04",0.4253793166044,-0.042495,-0.26212,"EC",0.329762340446499
"154","treatment","block 1",2,"2","2583",0.778982095827055,"saulin_01_vp_04",0.4253793166044,-0.042495,-0.26212,"PT",0.0559277905374663
"155","treatment","block 1",3,"1","3867",0.12570396692023,"saulin_01_vp_04",0.521777811881402,-0.042495,-0.26212,"EC",0.329762340446499
"156","treatment","block 1",3,"1","3867",0.12570396692023,"saulin_01_vp_04",0.521777811881402,-0.042495,-0.26212,"PT",0.0559277905374663
"157","treatment","block 1",4,"1","3734",-0.0920554093820444,"saulin_01_vp_04",0.377180068965898,-0.042495,-0.26212,"EC",0.329762340446499
"158","treatment","block 1",4,"1","3734",-0.0920554093820444,"saulin_01_vp_04",0.377180068965898,-0.042495,-0.26212,"PT",0.0559277905374663
"159","treatment","block 1",5,"1","3292",0.12570396692023,"saulin_01_vp_04",0.184383078411893,-0.042495,-0.26212,"EC",0.329762340446499
"160","treatment","block 1",5,"1","3292",0.12570396692023,"saulin_01_vp_04",0.184383078411893,-0.042495,-0.26212,"PT",0.0559277905374663
"161","treatment","block 1",6,"1","5700",0.21280771744114,"saulin_01_vp_04",0.666375554796906,-0.042495,-0.26212,"EC",0.329762340446499
"162","treatment","block 1",6,"1","5700",0.21280771744114,"saulin_01_vp_04",0.666375554796906,-0.042495,-0.26212,"PT",0.0559277905374663
"163","treatment","block 1",7,"1","2430",0.12570396692023,"saulin_01_vp_04",1.00377028826642,-0.042495,-0.26212,"EC",0.329762340446499
"164","treatment","block 1",7,"1","2430",0.12570396692023,"saulin_01_vp_04",1.00377028826642,-0.042495,-0.26212,"PT",0.0559277905374663
"165","treatment","block 1",8,"1","2384",-0.0920554093820444,"saulin_01_vp_04",0.618176307158405,-0.042495,-0.26212,"EC",0.329762340446499
"166","treatment","block 1",8,"1","2384",-0.0920554093820444,"saulin_01_vp_04",0.618176307158405,-0.042495,-0.26212,"PT",0.0559277905374663
"167","treatment","block 1",9,"2","1768",0.343463343222505,"saulin_01_vp_04",0.907371792989413,-0.042495,-0.26212,"EC",0.329762340446499
"168","treatment","block 1",9,"2","1768",0.343463343222505,"saulin_01_vp_04",0.907371792989413,-0.042495,-0.26212,"PT",0.0559277905374663
"169","treatment","block 1",10,"1","3775",0.12570396692023,"saulin_01_vp_04",0.666375554796906,-0.042495,-0.26212,"EC",0.329762340446499
"170","treatment","block 1",10,"1","3775",0.12570396692023,"saulin_01_vp_04",0.666375554796906,-0.042495,-0.26212,"PT",0.0559277905374663
"171","treatment","block 1",11,"2","3315",0.343463343222505,"saulin_01_vp_04",0.4253793166044,-0.042495,-0.26212,"EC",0.329762340446499
"172","treatment","block 1",11,"2","3315",0.343463343222505,"saulin_01_vp_04",0.4253793166044,-0.042495,-0.26212,"PT",0.0559277905374663
"173","treatment","block 1",12,"1","2241",-0.0920554093820444,"saulin_01_vp_04",0.666375554796906,-0.042495,-0.26212,"EC",0.329762340446499
"174","treatment","block 1",12,"1","2241",-0.0920554093820444,"saulin_01_vp_04",0.666375554796906,-0.042495,-0.26212,"PT",0.0559277905374663
"175","treatment","block 1",13,"1","4089",-0.0920554093820444,"saulin_01_vp_04",0.666375554796906,-0.042495,-0.26212,"EC",0.329762340446499
"176","treatment","block 1",13,"1","4089",-0.0920554093820444,"saulin_01_vp_04",0.666375554796906,-0.042495,-0.26212,"PT",0.0559277905374663
"177","treatment","block 1",14,"1","4409",0.12570396692023,"saulin_01_vp_04",1.00377028826642,-0.042495,-0.26212,"EC",0.329762340446499
"178","treatment","block 1",14,"1","4409",0.12570396692023,"saulin_01_vp_04",1.00377028826642,-0.042495,-0.26212,"PT",0.0559277905374663
"179","treatment","block 1",15,"1","2992",-0.353366660944774,"saulin_01_vp_04",0.618176307158405,-0.042495,-0.26212,"EC",0.329762340446499
"180","treatment","block 1",15,"1","2992",-0.353366660944774,"saulin_01_vp_04",0.618176307158405,-0.042495,-0.26212,"PT",0.0559277905374663
"181","treatment","block 1",16,"1","1383",-0.745333538288869,"saulin_01_vp_04",0.907371792989413,-0.042495,-0.26212,"EC",0.329762340446499
"182","treatment","block 1",16,"1","1383",-0.745333538288869,"saulin_01_vp_04",0.907371792989413,-0.042495,-0.26212,"PT",0.0559277905374663
"183","treatment","block 1",17,"2","4475",0.430567093743415,"saulin_01_vp_04",1.14836803118192,-0.042495,-0.26212,"EC",0.329762340446499
"184","treatment","block 1",17,"2","4475",0.430567093743415,"saulin_01_vp_04",1.14836803118192,-0.042495,-0.26212,"PT",0.0559277905374663
"185","treatment","block 1",18,"1","6261",0.12570396692023,"saulin_01_vp_04",0.666375554796906,-0.042495,-0.26212,"EC",0.329762340446499
"186","treatment","block 1",18,"1","6261",0.12570396692023,"saulin_01_vp_04",0.666375554796906,-0.042495,-0.26212,"PT",0.0559277905374663
"187","treatment","block 1",19,"1","1701",-0.527574161986594,"saulin_01_vp_04",1.63036050756693,-0.042495,-0.26212,"EC",0.329762340446499
"188","treatment","block 1",19,"1","1701",-0.527574161986594,"saulin_01_vp_04",1.63036050756693,-0.042495,-0.26212,"PT",0.0559277905374663
"189","treatment","block 1",20,"1","2872",-1.0066447898516,"saulin_01_vp_04",1.14836803118192,-0.042495,-0.26212,"EC",0.329762340446499
"190","treatment","block 1",20,"1","2872",-1.0066447898516,"saulin_01_vp_04",1.14836803118192,-0.042495,-0.26212,"PT",0.0559277905374663
"191","treatment","block 1",21,"2","3248",0.56122271952478,"saulin_01_vp_04",0.859172545350911,-0.042495,-0.26212,"EC",0.329762340446499
"192","treatment","block 1",21,"2","3248",0.56122271952478,"saulin_01_vp_04",0.859172545350911,-0.042495,-0.26212,"PT",0.0559277905374663
"193","treatment","block 1",22,"1","2023",-0.527574161986594,"saulin_01_vp_04",0.859172545350911,-0.042495,-0.26212,"EC",0.329762340446499
"194","treatment","block 1",22,"1","2023",-0.527574161986594,"saulin_01_vp_04",0.859172545350911,-0.042495,-0.26212,"PT",0.0559277905374663
"195","treatment","block 1",23,"1","5802",0.12570396692023,"saulin_01_vp_04",0.907371792989413,-0.042495,-0.26212,"EC",0.329762340446499
"196","treatment","block 1",23,"1","5802",0.12570396692023,"saulin_01_vp_04",0.907371792989413,-0.042495,-0.26212,"PT",0.0559277905374663
"197","treatment","block 1",24,"1","2123",-0.527574161986594,"saulin_01_vp_04",0.666375554796906,-0.042495,-0.26212,"EC",0.329762340446499
"198","treatment","block 1",24,"1","2123",-0.527574161986594,"saulin_01_vp_04",0.666375554796906,-0.042495,-0.26212,"PT",0.0559277905374663
"199","treatment","block 1",25,"1","4528",-0.527574161986594,"saulin_01_vp_04",0.907371792989413,-0.042495,-0.26212,"EC",0.329762340446499
"200","treatment","block 1",25,"1","4528",-0.527574161986594,"saulin_01_vp_04",0.907371792989413,-0.042495,-0.26212,"PT",0.0559277905374663
"201","treatment","block 1",1,"1","4391",-0.309814785684319,"saulin_01_vp_05",-1.26159435074315,-0.37057,-0.096953,"EC",-0.448138565222164
"202","treatment","block 1",1,"1","4391",-0.309814785684319,"saulin_01_vp_05",-1.26159435074315,-0.37057,-0.096953,"PT",-1.23041139182425
"203","treatment","block 1",2,"2","4029",0.996741472129329,"saulin_01_vp_05",-1.02059811255064,-0.37057,-0.096953,"EC",-0.448138565222164
"204","treatment","block 1",2,"2","4029",0.996741472129329,"saulin_01_vp_05",-1.02059811255064,-0.37057,-0.096953,"PT",-1.23041139182425
"205","treatment","block 1",3,"1","2028",-0.745333538288869,"saulin_01_vp_05",-1.06879736018914,-0.37057,-0.096953,"EC",-0.448138565222164
"206","treatment","block 1",3,"1","2028",-0.745333538288869,"saulin_01_vp_05",-1.06879736018914,-0.37057,-0.096953,"PT",-1.23041139182425
"207","treatment","block 1",4,"1","2180",-0.309814785684319,"saulin_01_vp_05",-1.02059811255064,-0.37057,-0.096953,"EC",-0.448138565222164
"208","treatment","block 1",4,"1","2180",-0.309814785684319,"saulin_01_vp_05",-1.02059811255064,-0.37057,-0.096953,"PT",-1.23041139182425
"209","treatment","block 1",5,"1","3600",-0.658229787767959,"saulin_01_vp_05",-0.924199617273637,-0.37057,-0.096953,"EC",-0.448138565222164
"210","treatment","block 1",5,"1","3600",-0.658229787767959,"saulin_01_vp_05",-0.924199617273637,-0.37057,-0.096953,"PT",-1.23041139182425
"211","treatment","block 1",6,"1","2314",-0.527574161986594,"saulin_01_vp_05",-1.26159435074315,-0.37057,-0.096953,"EC",-0.448138565222164
"212","treatment","block 1",6,"1","2314",-0.527574161986594,"saulin_01_vp_05",-1.26159435074315,-0.37057,-0.096953,"PT",-1.23041139182425
"213","treatment","block 1",7,"1","1685",-0.309814785684319,"saulin_01_vp_05",-1.02059811255064,-0.37057,-0.096953,"EC",-0.448138565222164
"214","treatment","block 1",7,"1","1685",-0.309814785684319,"saulin_01_vp_05",-1.02059811255064,-0.37057,-0.096953,"PT",-1.23041139182425
"215","treatment","block 1",8,"1","2642",-0.745333538288869,"saulin_01_vp_05",-0.779601874358133,-0.37057,-0.096953,"EC",-0.448138565222164
"216","treatment","block 1",8,"1","2642",-0.745333538288869,"saulin_01_vp_05",-0.779601874358133,-0.37057,-0.096953,"PT",-1.23041139182425
"217","treatment","block 1",9,"2","986",1.86777897733843,"saulin_01_vp_05",-0.827801121996635,-0.37057,-0.096953,"EC",-0.448138565222164
"218","treatment","block 1",9,"2","986",1.86777897733843,"saulin_01_vp_05",-0.827801121996635,-0.37057,-0.096953,"PT",-1.23041139182425
"219","treatment","block 1",10,"1","2208",0.12570396692023,"saulin_01_vp_05",-0.779601874358133,-0.37057,-0.096953,"EC",-0.448138565222164
"220","treatment","block 1",10,"1","2208",0.12570396692023,"saulin_01_vp_05",-0.779601874358133,-0.37057,-0.096953,"PT",-1.23041139182425
"221","treatment","block 1",11,"2","3149",-0.0920554093820444,"saulin_01_vp_05",-0.779601874358133,-0.37057,-0.096953,"EC",-0.448138565222164
"222","treatment","block 1",11,"2","3149",-0.0920554093820444,"saulin_01_vp_05",-0.779601874358133,-0.37057,-0.096953,"PT",-1.23041139182425
"223","treatment","block 1",12,"1","2416",-0.309814785684319,"saulin_01_vp_05",-0.779601874358133,-0.37057,-0.096953,"EC",-0.448138565222164
"224","treatment","block 1",12,"1","2416",-0.309814785684319,"saulin_01_vp_05",-0.779601874358133,-0.37057,-0.096953,"PT",-1.23041139182425
"225","treatment","block 1",13,"1","2721",-0.0920554093820444,"saulin_01_vp_05",-1.02059811255064,-0.37057,-0.096953,"EC",-0.448138565222164
"226","treatment","block 1",13,"1","2721",-0.0920554093820444,"saulin_01_vp_05",-1.02059811255064,-0.37057,-0.096953,"PT",-1.23041139182425
"227","treatment","block 1",14,"1","3642",0.0821520916597754,"saulin_01_vp_05",-0.538605636165627,-0.37057,-0.096953,"EC",-0.448138565222164
"228","treatment","block 1",14,"1","3642",0.0821520916597754,"saulin_01_vp_05",-0.538605636165627,-0.37057,-0.096953,"PT",-1.23041139182425
"229","treatment","block 1",15,"1","2960",-0.0920554093820444,"saulin_01_vp_05",-1.02059811255064,-0.37057,-0.096953,"EC",-0.448138565222164
"230","treatment","block 1",15,"1","2960",-0.0920554093820444,"saulin_01_vp_05",-1.02059811255064,-0.37057,-0.096953,"PT",-1.23041139182425
"231","treatment","block 1",16,"1","3562",0.29991146796205,"saulin_01_vp_05",-1.16519585546614,-0.37057,-0.096953,"EC",-0.448138565222164
"232","treatment","block 1",16,"1","3562",0.29991146796205,"saulin_01_vp_05",-1.16519585546614,-0.37057,-0.096953,"PT",-1.23041139182425
"233","treatment","block 1",17,"2","4138",0.778982095827055,"saulin_01_vp_05",-1.02059811255064,-0.37057,-0.096953,"EC",-0.448138565222164
"234","treatment","block 1",17,"2","4138",0.778982095827055,"saulin_01_vp_05",-1.02059811255064,-0.37057,-0.096953,"PT",-1.23041139182425
"235","treatment","block 1",18,"1","3764",0.12570396692023,"saulin_01_vp_05",-1.02059811255064,-0.37057,-0.096953,"EC",-0.448138565222164
"236","treatment","block 1",18,"1","3764",0.12570396692023,"saulin_01_vp_05",-1.02059811255064,-0.37057,-0.096953,"PT",-1.23041139182425
"237","treatment","block 1",19,"1","2008",-0.0920554093820444,"saulin_01_vp_05",-1.26159435074315,-0.37057,-0.096953,"EC",-0.448138565222164
"238","treatment","block 1",19,"1","2008",-0.0920554093820444,"saulin_01_vp_05",-1.26159435074315,-0.37057,-0.096953,"PT",-1.23041139182425
"239","treatment","block 1",20,"1","3525",-0.00495165886113449,"saulin_01_vp_05",-1.26159435074315,-0.37057,-0.096953,"EC",-0.448138565222164
"240","treatment","block 1",20,"1","3525",-0.00495165886113449,"saulin_01_vp_05",-1.26159435074315,-0.37057,-0.096953,"PT",-1.23041139182425
"241","treatment","block 1",21,"2","1542",1.43226022473388,"saulin_01_vp_05",-0.827801121996635,-0.37057,-0.096953,"EC",-0.448138565222164
"242","treatment","block 1",21,"2","1542",1.43226022473388,"saulin_01_vp_05",-0.827801121996635,-0.37057,-0.096953,"PT",-1.23041139182425
"243","treatment","block 1",22,"1","4050",0.29991146796205,"saulin_01_vp_05",-1.26159435074315,-0.37057,-0.096953,"EC",-0.448138565222164
"244","treatment","block 1",22,"1","4050",0.29991146796205,"saulin_01_vp_05",-1.26159435074315,-0.37057,-0.096953,"PT",-1.23041139182425
"245","treatment","block 1",23,"1","3259",0.0821520916597754,"saulin_01_vp_05",-0.779601874358133,-0.37057,-0.096953,"EC",-0.448138565222164
"246","treatment","block 1",23,"1","3259",0.0821520916597754,"saulin_01_vp_05",-0.779601874358133,-0.37057,-0.096953,"PT",-1.23041139182425
"247","treatment","block 1",24,"1","1931",0.12570396692023,"saulin_01_vp_05",-1.26159435074315,-0.37057,-0.096953,"EC",-0.448138565222164
"248","treatment","block 1",24,"1","1931",0.12570396692023,"saulin_01_vp_05",-1.26159435074315,-0.37057,-0.096953,"PT",-1.23041139182425
"249","treatment","block 1",25,"1","2911",0.12570396692023,"saulin_01_vp_05",-1.26159435074315,-0.37057,-0.096953,"EC",-0.448138565222164
"250","treatment","block 1",25,"1","2911",0.12570396692023,"saulin_01_vp_05",-1.26159435074315,-0.37057,-0.096953,"PT",-1.23041139182425
"251","treatment","block 1",1,"1","7029",-1.18085229089342,"saulin_01_vp_06",-0.779601874358133,-0.1124,-0.25202,"EC",0.329762340446499
"252","treatment","block 1",1,"1","7029",-1.18085229089342,"saulin_01_vp_06",-0.779601874358133,-0.1124,-0.25202,"PT",0.377512586127896
"253","treatment","block 1",2,"2","4176",-0.963092914591143,"saulin_01_vp_06",-0.779601874358133,-0.1124,-0.25202,"EC",0.329762340446499
"254","treatment","block 1",2,"2","4176",-0.963092914591143,"saulin_01_vp_06",-0.779601874358133,-0.1124,-0.25202,"PT",0.377512586127896
"255","treatment","block 1",3,"1","6186",-1.18085229089342,"saulin_01_vp_06",0.039785335496389,-0.1124,-0.25202,"EC",0.329762340446499
"256","treatment","block 1",3,"1","6186",-1.18085229089342,"saulin_01_vp_06",0.039785335496389,-0.1124,-0.25202,"PT",0.377512586127896
"257","treatment","block 1",4,"1","6226",-1.39861166719569,"saulin_01_vp_06",-0.29760939797312,-0.1124,-0.25202,"EC",0.329762340446499
"258","treatment","block 1",4,"1","6226",-1.39861166719569,"saulin_01_vp_06",-0.29760939797312,-0.1124,-0.25202,"PT",0.377512586127896
"259","treatment","block 1",5,"1","6065",-1.39861166719569,"saulin_01_vp_06",0.280781573688896,-0.1124,-0.25202,"EC",0.329762340446499
"260","treatment","block 1",5,"1","6065",-1.39861166719569,"saulin_01_vp_06",0.280781573688896,-0.1124,-0.25202,"PT",0.377512586127896
"261","treatment","block 1",6,"1","4200",-1.18085229089342,"saulin_01_vp_06",0.4253793166044,-0.1124,-0.25202,"EC",0.329762340446499
"262","treatment","block 1",6,"1","4200",-1.18085229089342,"saulin_01_vp_06",0.4253793166044,-0.1124,-0.25202,"PT",0.377512586127896
"263","treatment","block 1",7,"1","5044",-1.39861166719569,"saulin_01_vp_06",0.377180068965898,-0.1124,-0.25202,"EC",0.329762340446499
"264","treatment","block 1",7,"1","5044",-1.39861166719569,"saulin_01_vp_06",0.377180068965898,-0.1124,-0.25202,"PT",0.377512586127896
"265","treatment","block 1",8,"1","4075",-1.39861166719569,"saulin_01_vp_06",0.184383078411893,-0.1124,-0.25202,"EC",0.329762340446499
"266","treatment","block 1",8,"1","4075",-1.39861166719569,"saulin_01_vp_06",0.184383078411893,-0.1124,-0.25202,"PT",0.377512586127896
"267","treatment","block 1",9,"2","606",-0.309814785684319,"saulin_01_vp_06",0.521777811881402,-0.1124,-0.25202,"EC",0.329762340446499
"268","treatment","block 1",9,"2","606",-0.309814785684319,"saulin_01_vp_06",0.521777811881402,-0.1124,-0.25202,"PT",0.377512586127896
"269","treatment","block 1",10,"1","3760",-0.963092914591143,"saulin_01_vp_06",-0.29760939797312,-0.1124,-0.25202,"EC",0.329762340446499
"270","treatment","block 1",10,"1","3760",-0.963092914591143,"saulin_01_vp_06",-0.29760939797312,-0.1124,-0.25202,"PT",0.377512586127896
"271","treatment","block 1",11,"2","8131",-0.309814785684319,"saulin_01_vp_06",-0.29760939797312,-0.1124,-0.25202,"EC",0.329762340446499
"272","treatment","block 1",11,"2","8131",-0.309814785684319,"saulin_01_vp_06",-0.29760939797312,-0.1124,-0.25202,"PT",0.377512586127896
"273","treatment","block 1",12,"1","6700",-0.963092914591143,"saulin_01_vp_06",-0.29760939797312,-0.1124,-0.25202,"EC",0.329762340446499
"274","treatment","block 1",12,"1","6700",-0.963092914591143,"saulin_01_vp_06",-0.29760939797312,-0.1124,-0.25202,"PT",0.377512586127896
"275","treatment","block 1",13,"1","2407",-1.61637104349797,"saulin_01_vp_06",1.00377028826642,-0.1124,-0.25202,"EC",0.329762340446499
"276","treatment","block 1",13,"1","2407",-1.61637104349797,"saulin_01_vp_06",1.00377028826642,-0.1124,-0.25202,"PT",0.377512586127896
"277","treatment","block 1",14,"1","2310",-1.39861166719569,"saulin_01_vp_06",0.907371792989413,-0.1124,-0.25202,"EC",0.329762340446499
"278","treatment","block 1",14,"1","2310",-1.39861166719569,"saulin_01_vp_06",0.907371792989413,-0.1124,-0.25202,"PT",0.377512586127896
"279","treatment","block 1",15,"1","2590",-1.83413041980024,"saulin_01_vp_06",-1.74358682712816,-0.1124,-0.25202,"EC",0.329762340446499
"280","treatment","block 1",15,"1","2590",-1.83413041980024,"saulin_01_vp_06",-1.74358682712816,-0.1124,-0.25202,"PT",0.377512586127896
"281","treatment","block 1",16,"1","6619",-1.61637104349797,"saulin_01_vp_06",1.10016878354342,-0.1124,-0.25202,"EC",0.329762340446499
"282","treatment","block 1",16,"1","6619",-1.61637104349797,"saulin_01_vp_06",1.10016878354342,-0.1124,-0.25202,"PT",0.377512586127896
"283","treatment","block 1",17,"2","2723",0.12570396692023,"saulin_01_vp_06",0.907371792989413,-0.1124,-0.25202,"EC",0.329762340446499
"284","treatment","block 1",17,"2","2723",0.12570396692023,"saulin_01_vp_06",0.907371792989413,-0.1124,-0.25202,"PT",0.377512586127896
"285","treatment","block 1",18,"1","5035",-0.963092914591143,"saulin_01_vp_06",0.666375554796906,-0.1124,-0.25202,"EC",0.329762340446499
"286","treatment","block 1",18,"1","5035",-0.963092914591143,"saulin_01_vp_06",0.666375554796906,-0.1124,-0.25202,"PT",0.377512586127896
"287","treatment","block 1",19,"1","3361",-1.39861166719569,"saulin_01_vp_06",0.666375554796906,-0.1124,-0.25202,"EC",0.329762340446499
"288","treatment","block 1",19,"1","3361",-1.39861166719569,"saulin_01_vp_06",0.666375554796906,-0.1124,-0.25202,"PT",0.377512586127896
"289","treatment","block 1",20,"1","2069",-1.83413041980024,"saulin_01_vp_06",0.907371792989413,-0.1124,-0.25202,"EC",0.329762340446499
"290","treatment","block 1",20,"1","2069",-1.83413041980024,"saulin_01_vp_06",0.907371792989413,-0.1124,-0.25202,"PT",0.377512586127896
"291","treatment","block 1",21,"2","6931",-0.00495165886113449,"saulin_01_vp_06",1.63036050756693,-0.1124,-0.25202,"EC",0.329762340446499
"292","treatment","block 1",21,"2","6931",-0.00495165886113449,"saulin_01_vp_06",1.63036050756693,-0.1124,-0.25202,"PT",0.377512586127896
"293","treatment","block 1",22,"1","4553",-2.05188979610252,"saulin_01_vp_06",0.666375554796906,-0.1124,-0.25202,"EC",0.329762340446499
"294","treatment","block 1",22,"1","4553",-2.05188979610252,"saulin_01_vp_06",0.666375554796906,-0.1124,-0.25202,"PT",0.377512586127896
"295","treatment","block 1",23,"1","3666",-2.05188979610252,"saulin_01_vp_06",1.87135674575944,-0.1124,-0.25202,"EC",0.329762340446499
"296","treatment","block 1",23,"1","3666",-2.05188979610252,"saulin_01_vp_06",1.87135674575944,-0.1124,-0.25202,"PT",0.377512586127896
"297","treatment","block 1",24,"1","4613",-1.83413041980024,"saulin_01_vp_06",1.82315749812094,-0.1124,-0.25202,"EC",0.329762340446499
"298","treatment","block 1",24,"1","4613",-1.83413041980024,"saulin_01_vp_06",1.82315749812094,-0.1124,-0.25202,"PT",0.377512586127896
"299","treatment","block 1",25,"1","3719",-2.05188979610252,"saulin_01_vp_06",1.87135674575944,-0.1124,-0.25202,"EC",0.329762340446499
"300","treatment","block 1",25,"1","3719",-2.05188979610252,"saulin_01_vp_06",1.87135674575944,-0.1124,-0.25202,"PT",0.377512586127896
"301","treatment","block 1",1,"1","3173",-0.745333538288869,"saulin_01_vp_10",-1.74358682712816,-0.091908,-0.0021999,"EC",-0.0591881123878324
"302","treatment","block 1",1,"1","3173",-0.745333538288869,"saulin_01_vp_10",-1.74358682712816,-0.091908,-0.0021999,"PT",-0.265657005052963
"303","treatment","block 1",2,"2","3896",1.43226022473388,"saulin_01_vp_10",-1.26159435074315,-0.091908,-0.0021999,"EC",-0.0591881123878324
"304","treatment","block 1",2,"2","3896",1.43226022473388,"saulin_01_vp_10",-1.26159435074315,-0.091908,-0.0021999,"PT",-0.265657005052963
"305","treatment","block 1",3,"1","2566",1.2145008484316,"saulin_01_vp_10",-1.64718833185116,-0.091908,-0.0021999,"EC",-0.0591881123878324
"306","treatment","block 1",3,"1","2566",1.2145008484316,"saulin_01_vp_10",-1.64718833185116,-0.091908,-0.0021999,"PT",-0.265657005052963
"307","treatment","block 1",4,"1","4917",-0.527574161986594,"saulin_01_vp_10",-1.64718833185116,-0.091908,-0.0021999,"EC",-0.0591881123878324
"308","treatment","block 1",4,"1","4917",-0.527574161986594,"saulin_01_vp_10",-1.64718833185116,-0.091908,-0.0021999,"PT",-0.265657005052963
"309","treatment","block 1",5,"1","3650",0.12570396692023,"saulin_01_vp_10",-1.02059811255064,-0.091908,-0.0021999,"EC",-0.0591881123878324
"310","treatment","block 1",5,"1","3650",0.12570396692023,"saulin_01_vp_10",-1.02059811255064,-0.091908,-0.0021999,"PT",-0.265657005052963
"311","treatment","block 1",6,"1","5880",-0.440470411465684,"saulin_01_vp_10",-1.26159435074315,-0.091908,-0.0021999,"EC",-0.0591881123878324
"312","treatment","block 1",6,"1","5880",-0.440470411465684,"saulin_01_vp_10",-1.26159435074315,-0.091908,-0.0021999,"PT",-0.265657005052963
"313","treatment","block 1",7,"1","3091",0.12570396692023,"saulin_01_vp_10",-1.02059811255064,-0.091908,-0.0021999,"EC",-0.0591881123878324
"314","treatment","block 1",7,"1","3091",0.12570396692023,"saulin_01_vp_10",-1.02059811255064,-0.091908,-0.0021999,"PT",-0.265657005052963
"315","treatment","block 1",8,"1","3931",-0.135607284642499,"saulin_01_vp_10",-0.538605636165627,-0.091908,-0.0021999,"EC",-0.0591881123878324
"316","treatment","block 1",8,"1","3931",-0.135607284642499,"saulin_01_vp_10",-0.538605636165627,-0.091908,-0.0021999,"PT",-0.265657005052963
"317","treatment","block 1",9,"2","2662",-0.527574161986594,"saulin_01_vp_10",-0.779601874358133,-0.091908,-0.0021999,"EC",-0.0591881123878324
"318","treatment","block 1",9,"2","2662",-0.527574161986594,"saulin_01_vp_10",-0.779601874358133,-0.091908,-0.0021999,"PT",-0.265657005052963
"319","treatment","block 1",10,"1","5031",-0.527574161986594,"saulin_01_vp_10",-0.538605636165627,-0.091908,-0.0021999,"EC",-0.0591881123878324
"320","treatment","block 1",10,"1","5031",-0.527574161986594,"saulin_01_vp_10",-0.538605636165627,-0.091908,-0.0021999,"PT",-0.265657005052963
"321","treatment","block 1",11,"2","6817",0.343463343222505,"saulin_01_vp_10",-0.538605636165627,-0.091908,-0.0021999,"EC",-0.0591881123878324
"322","treatment","block 1",11,"2","6817",0.343463343222505,"saulin_01_vp_10",-0.538605636165627,-0.091908,-0.0021999,"PT",-0.265657005052963
"323","treatment","block 1",12,"1","3202",-0.309814785684319,"saulin_01_vp_10",-1.02059811255064,-0.091908,-0.0021999,"EC",-0.0591881123878324
"324","treatment","block 1",12,"1","3202",-0.309814785684319,"saulin_01_vp_10",-1.02059811255064,-0.091908,-0.0021999,"PT",-0.265657005052963
"325","treatment","block 1",13,"1","3561",0.12570396692023,"saulin_01_vp_10",-0.779601874358133,-0.091908,-0.0021999,"EC",-0.0591881123878324
"326","treatment","block 1",13,"1","3561",0.12570396692023,"saulin_01_vp_10",-0.779601874358133,-0.091908,-0.0021999,"PT",-0.265657005052963
"327","treatment","block 1",14,"1","3784",-0.309814785684319,"saulin_01_vp_10",-0.779601874358133,-0.091908,-0.0021999,"EC",-0.0591881123878324
"328","treatment","block 1",14,"1","3784",-0.309814785684319,"saulin_01_vp_10",-0.779601874358133,-0.091908,-0.0021999,"PT",-0.265657005052963
"329","treatment","block 1",15,"1","3528",-1.18085229089342,"saulin_01_vp_10",-0.538605636165627,-0.091908,-0.0021999,"EC",-0.0591881123878324
"330","treatment","block 1",15,"1","3528",-1.18085229089342,"saulin_01_vp_10",-0.538605636165627,-0.091908,-0.0021999,"PT",-0.265657005052963
"331","treatment","block 1",16,"1","2237",-0.0920554093820444,"saulin_01_vp_10",-1.02059811255064,-0.091908,-0.0021999,"EC",-0.0591881123878324
"332","treatment","block 1",16,"1","2237",-0.0920554093820444,"saulin_01_vp_10",-1.02059811255064,-0.091908,-0.0021999,"PT",-0.265657005052963
"333","treatment","block 1",17,"2","3915",-0.309814785684319,"saulin_01_vp_10",-0.924199617273637,-0.091908,-0.0021999,"EC",-0.0591881123878324
"334","treatment","block 1",17,"2","3915",-0.309814785684319,"saulin_01_vp_10",-0.924199617273637,-0.091908,-0.0021999,"PT",-0.265657005052963
"335","treatment","block 1",18,"1","4507",-0.745333538288869,"saulin_01_vp_10",-1.26159435074315,-0.091908,-0.0021999,"EC",-0.0591881123878324
"336","treatment","block 1",18,"1","4507",-0.745333538288869,"saulin_01_vp_10",-1.26159435074315,-0.091908,-0.0021999,"PT",-0.265657005052963
"337","treatment","block 1",19,"1","4436",-0.527574161986594,"saulin_01_vp_10",-1.74358682712816,-0.091908,-0.0021999,"EC",-0.0591881123878324
"338","treatment","block 1",19,"1","4436",-0.527574161986594,"saulin_01_vp_10",-1.74358682712816,-0.091908,-0.0021999,"PT",-0.265657005052963
"339","treatment","block 1",20,"1","3150",0.21280771744114,"saulin_01_vp_10",-0.924199617273637,-0.091908,-0.0021999,"EC",-0.0591881123878324
"340","treatment","block 1",20,"1","3150",0.21280771744114,"saulin_01_vp_10",-0.924199617273637,-0.091908,-0.0021999,"PT",-0.265657005052963
"341","treatment","block 1",21,"2","4773",0.12570396692023,"saulin_01_vp_10",-2.03278231295917,-0.091908,-0.0021999,"EC",-0.0591881123878324
"342","treatment","block 1",21,"2","4773",0.12570396692023,"saulin_01_vp_10",-2.03278231295917,-0.091908,-0.0021999,"PT",-0.265657005052963
"343","treatment","block 1",22,"1","3821",0.12570396692023,"saulin_01_vp_10",-0.538605636165627,-0.091908,-0.0021999,"EC",-0.0591881123878324
"344","treatment","block 1",22,"1","3821",0.12570396692023,"saulin_01_vp_10",-0.538605636165627,-0.091908,-0.0021999,"PT",-0.265657005052963
"345","treatment","block 1",23,"1","4323",0.12570396692023,"saulin_01_vp_10",-0.683203379081131,-0.091908,-0.0021999,"EC",-0.0591881123878324
"346","treatment","block 1",23,"1","4323",0.12570396692023,"saulin_01_vp_10",-0.683203379081131,-0.091908,-0.0021999,"PT",-0.265657005052963
"347","treatment","block 1",24,"1","3188",-0.0920554093820444,"saulin_01_vp_10",-0.779601874358133,-0.091908,-0.0021999,"EC",-0.0591881123878324
"348","treatment","block 1",24,"1","3188",-0.0920554093820444,"saulin_01_vp_10",-0.779601874358133,-0.091908,-0.0021999,"PT",-0.265657005052963
"349","treatment","block 1",25,"1","4242",-0.309814785684319,"saulin_01_vp_10",-0.538605636165627,-0.091908,-0.0021999,"EC",-0.0591881123878324
"350","treatment","block 1",25,"1","4242",-0.309814785684319,"saulin_01_vp_10",-0.538605636165627,-0.091908,-0.0021999,"PT",-0.265657005052963
"351","treatment","block 1",1,"1","5693",-0.658229787767959,"saulin_01_vp_11",-1.50259058893565,0.68617,0.38039,"EC",0.71871279328083
"352","treatment","block 1",1,"1","5693",-0.658229787767959,"saulin_01_vp_11",-1.50259058893565,0.68617,0.38039,"PT",-1.23041139182425
"353","treatment","block 1",2,"2","1258",-0.745333538288869,"saulin_01_vp_11",-0.827801121996635,0.68617,0.38039,"EC",0.71871279328083
"354","treatment","block 1",2,"2","1258",-0.745333538288869,"saulin_01_vp_11",-0.827801121996635,0.68617,0.38039,"PT",-1.23041139182425
"355","treatment","block 1",3,"1","2784",-0.745333538288869,"saulin_01_vp_11",-0.538605636165627,0.68617,0.38039,"EC",0.71871279328083
"356","treatment","block 1",3,"1","2784",-0.745333538288869,"saulin_01_vp_11",-0.538605636165627,0.68617,0.38039,"PT",-1.23041139182425
"357","treatment","block 1",4,"1","5146",-1.22440416615387,"saulin_01_vp_11",-0.779601874358133,0.68617,0.38039,"EC",0.71871279328083
"358","treatment","block 1",4,"1","5146",-1.22440416615387,"saulin_01_vp_11",-0.779601874358133,0.68617,0.38039,"PT",-1.23041139182425
"359","treatment","block 1",5,"1","5041",-0.527574161986594,"saulin_01_vp_11",-1.26159435074315,0.68617,0.38039,"EC",0.71871279328083
"360","treatment","block 1",5,"1","5041",-0.527574161986594,"saulin_01_vp_11",-1.26159435074315,0.68617,0.38039,"PT",-1.23041139182425
"361","treatment","block 1",6,"1","6019",-0.963092914591143,"saulin_01_vp_11",-0.827801121996635,0.68617,0.38039,"EC",0.71871279328083
"362","treatment","block 1",6,"1","6019",-0.963092914591143,"saulin_01_vp_11",-0.827801121996635,0.68617,0.38039,"PT",-1.23041139182425
"363","treatment","block 1",7,"1","3695",-0.745333538288869,"saulin_01_vp_11",-0.538605636165627,0.68617,0.38039,"EC",0.71871279328083
"364","treatment","block 1",7,"1","3695",-0.745333538288869,"saulin_01_vp_11",-0.538605636165627,0.68617,0.38039,"PT",-1.23041139182425
"365","treatment","block 1",8,"1","6815",-1.31150791667478,"saulin_01_vp_11",-0.29760939797312,0.68617,0.38039,"EC",0.71871279328083
"366","treatment","block 1",8,"1","6815",-1.31150791667478,"saulin_01_vp_11",-0.29760939797312,0.68617,0.38039,"PT",-1.23041139182425
"367","treatment","block 1",9,"2","1794",-0.309814785684319,"saulin_01_vp_11",-0.345808645611622,0.68617,0.38039,"EC",0.71871279328083
"368","treatment","block 1",9,"2","1794",-0.309814785684319,"saulin_01_vp_11",-0.345808645611622,0.68617,0.38039,"PT",-1.23041139182425
"369","treatment","block 1",10,"1","3710",-0.527574161986594,"saulin_01_vp_11",0.280781573688896,0.68617,0.38039,"EC",0.71871279328083
"370","treatment","block 1",10,"1","3710",-0.527574161986594,"saulin_01_vp_11",0.280781573688896,0.68617,0.38039,"PT",-1.23041139182425
"371","treatment","block 1",11,"2","4390",-0.309814785684319,"saulin_01_vp_11",-0.104812407419115,0.68617,0.38039,"EC",0.71871279328083
"372","treatment","block 1",11,"2","4390",-0.309814785684319,"saulin_01_vp_11",-0.104812407419115,0.68617,0.38039,"PT",-1.23041139182425
"373","treatment","block 1",12,"1","5647",-0.875989164070233,"saulin_01_vp_11",-0.29760939797312,0.68617,0.38039,"EC",0.71871279328083
"374","treatment","block 1",12,"1","5647",-0.875989164070233,"saulin_01_vp_11",-0.29760939797312,0.68617,0.38039,"PT",-1.23041139182425
"375","treatment","block 1",13,"1","6619",-1.61637104349797,"saulin_01_vp_11",-0.29760939797312,0.68617,0.38039,"EC",0.71871279328083
"376","treatment","block 1",13,"1","6619",-1.61637104349797,"saulin_01_vp_11",-0.29760939797312,0.68617,0.38039,"PT",-1.23041139182425
"377","treatment","block 1",14,"1","2067",-1.61637104349797,"saulin_01_vp_11",0.907371792989413,0.68617,0.38039,"EC",0.71871279328083
"378","treatment","block 1",14,"1","2067",-1.61637104349797,"saulin_01_vp_11",0.907371792989413,0.68617,0.38039,"PT",-1.23041139182425
"379","treatment","block 1",15,"1","5356",-1.61637104349797,"saulin_01_vp_11",0.184383078411893,0.68617,0.38039,"EC",0.71871279328083
"380","treatment","block 1",15,"1","5356",-1.61637104349797,"saulin_01_vp_11",0.184383078411893,0.68617,0.38039,"PT",-1.23041139182425
"381","treatment","block 1",16,"1","4275",-1.44216354245615,"saulin_01_vp_11",0.184383078411893,0.68617,0.38039,"EC",0.71871279328083
"382","treatment","block 1",16,"1","4275",-1.44216354245615,"saulin_01_vp_11",0.184383078411893,0.68617,0.38039,"PT",-1.23041139182425
"383","treatment","block 1",17,"2","2345",0.56122271952478,"saulin_01_vp_11",0.907371792989413,0.68617,0.38039,"EC",0.71871279328083
"384","treatment","block 1",17,"2","2345",0.56122271952478,"saulin_01_vp_11",0.907371792989413,0.68617,0.38039,"PT",-1.23041139182425
"385","treatment","block 1",18,"1","2326",-1.61637104349797,"saulin_01_vp_11",0.666375554796906,0.68617,0.38039,"EC",0.71871279328083
"386","treatment","block 1",18,"1","2326",-1.61637104349797,"saulin_01_vp_11",0.666375554796906,0.68617,0.38039,"PT",-1.23041139182425
"387","treatment","block 1",19,"1","1196",-2.05188979610252,"saulin_01_vp_11",0.666375554796906,0.68617,0.38039,"EC",0.71871279328083
"388","treatment","block 1",19,"1","1196",-2.05188979610252,"saulin_01_vp_11",0.666375554796906,0.68617,0.38039,"PT",-1.23041139182425
"389","treatment","block 1",20,"1","5267",-1.83413041980024,"saulin_01_vp_11",1.63036050756693,0.68617,0.38039,"EC",0.71871279328083
"390","treatment","block 1",20,"1","5267",-1.83413041980024,"saulin_01_vp_11",1.63036050756693,0.68617,0.38039,"PT",-1.23041139182425
"391","treatment","block 1",21,"2","4868",-1.39861166719569,"saulin_01_vp_11",1.63036050756693,0.68617,0.38039,"EC",0.71871279328083
"392","treatment","block 1",21,"2","4868",-1.39861166719569,"saulin_01_vp_11",1.63036050756693,0.68617,0.38039,"PT",-1.23041139182425
"393","treatment","block 1",22,"1","4507",-1.18085229089342,"saulin_01_vp_11",1.63036050756693,0.68617,0.38039,"EC",0.71871279328083
"394","treatment","block 1",22,"1","4507",-1.18085229089342,"saulin_01_vp_11",1.63036050756693,0.68617,0.38039,"PT",-1.23041139182425
"395","treatment","block 1",23,"1","4687",-2.05188979610252,"saulin_01_vp_11",1.38936426937443,0.68617,0.38039,"EC",0.71871279328083
"396","treatment","block 1",23,"1","4687",-2.05188979610252,"saulin_01_vp_11",1.38936426937443,0.68617,0.38039,"PT",-1.23041139182425
"397","treatment","block 1",24,"1","5041",-1.83413041980024,"saulin_01_vp_11",1.63036050756693,0.68617,0.38039,"EC",0.71871279328083
"398","treatment","block 1",24,"1","5041",-1.83413041980024,"saulin_01_vp_11",1.63036050756693,0.68617,0.38039,"PT",-1.23041139182425
"399","treatment","block 1",25,"1","2578",-1.18085229089342,"saulin_01_vp_11",1.38936426937443,0.68617,0.38039,"EC",0.71871279328083
"400","treatment","block 1",25,"1","2578",-1.18085229089342,"saulin_01_vp_11",1.38936426937443,0.68617,0.38039,"PT",-1.23041139182425
"401","treatment","block 1",1,"1","3606",0.778982095827055,"saulin_01_vp_12",-1.26159435074315,0.15426,-0.19399,"EC",-0.0591881123878324
"402","treatment","block 1",1,"1","3606",0.778982095827055,"saulin_01_vp_12",-1.26159435074315,0.15426,-0.19399,"PT",-0.908826596233823
"403","treatment","block 1",2,"2","3628",1.2145008484316,"saulin_01_vp_12",-1.26159435074315,0.15426,-0.19399,"EC",-0.0591881123878324
"404","treatment","block 1",2,"2","3628",1.2145008484316,"saulin_01_vp_12",-1.26159435074315,0.15426,-0.19399,"PT",-0.908826596233823
"405","treatment","block 1",3,"1","5025",1.08384522265024,"saulin_01_vp_12",-0.779601874358133,0.15426,-0.19399,"EC",-0.0591881123878324
"406","treatment","block 1",3,"1","5025",1.08384522265024,"saulin_01_vp_12",-0.779601874358133,0.15426,-0.19399,"PT",-0.908826596233823
"407","treatment","block 1",4,"1","6041",0.517670844264325,"saulin_01_vp_12",-1.02059811255064,0.15426,-0.19399,"EC",-0.0591881123878324
"408","treatment","block 1",4,"1","6041",0.517670844264325,"saulin_01_vp_12",-1.02059811255064,0.15426,-0.19399,"PT",-0.908826596233823
"409","treatment","block 1",5,"1","2573",0.343463343222505,"saulin_01_vp_12",-0.0566131597806136,0.15426,-0.19399,"EC",-0.0591881123878324
"410","treatment","block 1",5,"1","2573",0.343463343222505,"saulin_01_vp_12",-0.0566131597806136,0.15426,-0.19399,"PT",-0.908826596233823
"411","treatment","block 1",6,"1","2578",-0.0920554093820444,"saulin_01_vp_12",-0.29760939797312,0.15426,-0.19399,"EC",-0.0591881123878324
"412","treatment","block 1",6,"1","2578",-0.0920554093820444,"saulin_01_vp_12",-0.29760939797312,0.15426,-0.19399,"PT",-0.908826596233823
"413","treatment","block 1",7,"1","5171",0.12570396692023,"saulin_01_vp_12",-0.29760939797312,0.15426,-0.19399,"EC",-0.0591881123878324
"414","treatment","block 1",7,"1","5171",0.12570396692023,"saulin_01_vp_12",-0.29760939797312,0.15426,-0.19399,"PT",-0.908826596233823
"415","treatment","block 1",8,"1","2650",-0.527574161986594,"saulin_01_vp_12",-1.02059811255064,0.15426,-0.19399,"EC",-0.0591881123878324
"416","treatment","block 1",8,"1","2650",-0.527574161986594,"saulin_01_vp_12",-1.02059811255064,0.15426,-0.19399,"PT",-0.908826596233823
"417","treatment","block 1",9,"2","5036",0.56122271952478,"saulin_01_vp_12",-0.779601874358133,0.15426,-0.19399,"EC",-0.0591881123878324
"418","treatment","block 1",9,"2","5036",0.56122271952478,"saulin_01_vp_12",-0.779601874358133,0.15426,-0.19399,"PT",-0.908826596233823
"419","treatment","block 1",10,"1","2122",0.343463343222505,"saulin_01_vp_12",-0.538605636165627,0.15426,-0.19399,"EC",-0.0591881123878324
"420","treatment","block 1",10,"1","2122",0.343463343222505,"saulin_01_vp_12",-0.538605636165627,0.15426,-0.19399,"PT",-0.908826596233823
"421","treatment","block 1",11,"2","2584",1.43226022473388,"saulin_01_vp_12",-1.02059811255064,0.15426,-0.19399,"EC",-0.0591881123878324
"422","treatment","block 1",11,"2","2584",1.43226022473388,"saulin_01_vp_12",-1.02059811255064,0.15426,-0.19399,"PT",-0.908826596233823
"423","treatment","block 1",12,"1","1907",0.12570396692023,"saulin_01_vp_12",-1.30979359838165,0.15426,-0.19399,"EC",-0.0591881123878324
"424","treatment","block 1",12,"1","1907",0.12570396692023,"saulin_01_vp_12",-1.30979359838165,0.15426,-0.19399,"PT",-0.908826596233823
"425","treatment","block 1",13,"1","3975",0.12570396692023,"saulin_01_vp_12",-1.02059811255064,0.15426,-0.19399,"EC",-0.0591881123878324
"426","treatment","block 1",13,"1","3975",0.12570396692023,"saulin_01_vp_12",-1.02059811255064,0.15426,-0.19399,"PT",-0.908826596233823
"427","treatment","block 1",14,"1","3230",0.778982095827055,"saulin_01_vp_12",-0.779601874358133,0.15426,-0.19399,"EC",-0.0591881123878324
"428","treatment","block 1",14,"1","3230",0.778982095827055,"saulin_01_vp_12",-0.779601874358133,0.15426,-0.19399,"PT",-0.908826596233823
"429","treatment","block 1",15,"1","3525",0.12570396692023,"saulin_01_vp_12",-0.779601874358133,0.15426,-0.19399,"EC",-0.0591881123878324
"430","treatment","block 1",15,"1","3525",0.12570396692023,"saulin_01_vp_12",-0.779601874358133,0.15426,-0.19399,"PT",-0.908826596233823
"431","treatment","block 1",16,"1","5683",0.12570396692023,"saulin_01_vp_12",-1.06879736018914,0.15426,-0.19399,"EC",-0.0591881123878324
"432","treatment","block 1",16,"1","5683",0.12570396692023,"saulin_01_vp_12",-1.06879736018914,0.15426,-0.19399,"PT",-0.908826596233823
"433","treatment","block 1",17,"2","5466",1.2145008484316,"saulin_01_vp_12",-0.779601874358133,0.15426,-0.19399,"EC",-0.0591881123878324
"434","treatment","block 1",17,"2","5466",1.2145008484316,"saulin_01_vp_12",-0.779601874358133,0.15426,-0.19399,"PT",-0.908826596233823
"435","treatment","block 1",18,"1","2475",0.12570396692023,"saulin_01_vp_12",-1.02059811255064,0.15426,-0.19399,"EC",-0.0591881123878324
"436","treatment","block 1",18,"1","2475",0.12570396692023,"saulin_01_vp_12",-1.02059811255064,0.15426,-0.19399,"PT",-0.908826596233823
"437","treatment","block 1",19,"1","7797",-0.0920554093820444,"saulin_01_vp_12",-1.06879736018914,0.15426,-0.19399,"EC",-0.0591881123878324
"438","treatment","block 1",19,"1","7797",-0.0920554093820444,"saulin_01_vp_12",-1.06879736018914,0.15426,-0.19399,"PT",-0.908826596233823
"439","treatment","block 1",20,"1","2908",0.12570396692023,"saulin_01_vp_12",-1.26159435074315,0.15426,-0.19399,"EC",-0.0591881123878324
"440","treatment","block 1",20,"1","2908",0.12570396692023,"saulin_01_vp_12",-1.26159435074315,0.15426,-0.19399,"PT",-0.908826596233823
"441","treatment","block 1",21,"2","5327",1.65001960103615,"saulin_01_vp_12",-1.26159435074315,0.15426,-0.19399,"EC",-0.0591881123878324
"442","treatment","block 1",21,"2","5327",1.65001960103615,"saulin_01_vp_12",-1.26159435074315,0.15426,-0.19399,"PT",-0.908826596233823
"443","treatment","block 1",22,"1","4906",0.778982095827055,"saulin_01_vp_12",-1.26159435074315,0.15426,-0.19399,"EC",-0.0591881123878324
"444","treatment","block 1",22,"1","4906",0.778982095827055,"saulin_01_vp_12",-1.26159435074315,0.15426,-0.19399,"PT",-0.908826596233823
"445","treatment","block 1",23,"1","4759",-0.0920554093820444,"saulin_01_vp_12",-1.02059811255064,0.15426,-0.19399,"EC",-0.0591881123878324
"446","treatment","block 1",23,"1","4759",-0.0920554093820444,"saulin_01_vp_12",-1.02059811255064,0.15426,-0.19399,"PT",-0.908826596233823
"447","treatment","block 1",24,"1","2391",-0.0920554093820444,"saulin_01_vp_12",-0.924199617273637,0.15426,-0.19399,"EC",-0.0591881123878324
"448","treatment","block 1",24,"1","2391",-0.0920554093820444,"saulin_01_vp_12",-0.924199617273637,0.15426,-0.19399,"PT",-0.908826596233823
"449","treatment","block 1",25,"1","3849",0.56122271952478,"saulin_01_vp_12",-1.02059811255064,0.15426,-0.19399,"EC",-0.0591881123878324
"450","treatment","block 1",25,"1","3849",0.56122271952478,"saulin_01_vp_12",-1.02059811255064,0.15426,-0.19399,"PT",-0.908826596233823
"451","treatment","block 1",1,"1","5858",-0.309814785684319,"saulin_01_vp_14",-1.02059811255064,-1.1965,-0.19213,"EC",0.71871279328083
"452","treatment","block 1",1,"1","5858",-0.309814785684319,"saulin_01_vp_14",-1.02059811255064,-1.1965,-0.19213,"PT",1.34226697289918
"453","treatment","block 1",2,"2","5239",0.56122271952478,"saulin_01_vp_14",-0.924199617273637,-1.1965,-0.19213,"EC",0.71871279328083
"454","treatment","block 1",2,"2","5239",0.56122271952478,"saulin_01_vp_14",-0.924199617273637,-1.1965,-0.19213,"PT",1.34226697289918
"455","treatment","block 1",3,"1","8365",0.12570396692023,"saulin_01_vp_14",-0.779601874358133,-1.1965,-0.19213,"EC",0.71871279328083
"456","treatment","block 1",3,"1","8365",0.12570396692023,"saulin_01_vp_14",-0.779601874358133,-1.1965,-0.19213,"PT",1.34226697289918
"457","treatment","block 1",4,"1","7585",-0.0920554093820444,"saulin_01_vp_14",-1.02059811255064,-1.1965,-0.19213,"EC",0.71871279328083
"458","treatment","block 1",4,"1","7585",-0.0920554093820444,"saulin_01_vp_14",-1.02059811255064,-1.1965,-0.19213,"PT",1.34226697289918
"459","treatment","block 1",5,"1","9645",0.343463343222505,"saulin_01_vp_14",-1.02059811255064,-1.1965,-0.19213,"EC",0.71871279328083
"460","treatment","block 1",5,"1","9645",0.343463343222505,"saulin_01_vp_14",-1.02059811255064,-1.1965,-0.19213,"PT",1.34226697289918
"461","treatment","block 1",6,"1","4075",-0.527574161986594,"saulin_01_vp_14",-0.779601874358133,-1.1965,-0.19213,"EC",0.71871279328083
"462","treatment","block 1",6,"1","4075",-0.527574161986594,"saulin_01_vp_14",-0.779601874358133,-1.1965,-0.19213,"PT",1.34226697289918
"463","treatment","block 1",7,"1","5544",-0.527574161986594,"saulin_01_vp_14",-0.0566131597806136,-1.1965,-0.19213,"EC",0.71871279328083
"464","treatment","block 1",7,"1","5544",-0.527574161986594,"saulin_01_vp_14",-0.0566131597806136,-1.1965,-0.19213,"PT",1.34226697289918
"465","treatment","block 1",8,"1","6500",-1.0066447898516,"saulin_01_vp_14",-0.29760939797312,-1.1965,-0.19213,"EC",0.71871279328083
"466","treatment","block 1",8,"1","6500",-1.0066447898516,"saulin_01_vp_14",-0.29760939797312,-1.1965,-0.19213,"PT",1.34226697289918
"467","treatment","block 1",9,"2","7158",-0.440470411465684,"saulin_01_vp_14",-0.0566131597806136,-1.1965,-0.19213,"EC",0.71871279328083
"468","treatment","block 1",9,"2","7158",-0.440470411465684,"saulin_01_vp_14",-0.0566131597806136,-1.1965,-0.19213,"PT",1.34226697289918
"469","treatment","block 1",10,"1","6602",-0.309814785684319,"saulin_01_vp_14",-0.29760939797312,-1.1965,-0.19213,"EC",0.71871279328083
"470","treatment","block 1",10,"1","6602",-0.309814785684319,"saulin_01_vp_14",-0.29760939797312,-1.1965,-0.19213,"PT",1.34226697289918
"471","treatment","block 1",11,"2","3960",0.12570396692023,"saulin_01_vp_14",-0.538605636165627,-1.1965,-0.19213,"EC",0.71871279328083
"472","treatment","block 1",11,"2","3960",0.12570396692023,"saulin_01_vp_14",-0.538605636165627,-1.1965,-0.19213,"PT",1.34226697289918
"473","treatment","block 1",12,"1","5036",-0.0920554093820444,"saulin_01_vp_14",-0.827801121996635,-1.1965,-0.19213,"EC",0.71871279328083
"474","treatment","block 1",12,"1","5036",-0.0920554093820444,"saulin_01_vp_14",-0.827801121996635,-1.1965,-0.19213,"PT",1.34226697289918
"475","treatment","block 1",13,"1","3667",-0.527574161986594,"saulin_01_vp_14",-0.779601874358133,-1.1965,-0.19213,"EC",0.71871279328083
"476","treatment","block 1",13,"1","3667",-0.527574161986594,"saulin_01_vp_14",-0.779601874358133,-1.1965,-0.19213,"PT",1.34226697289918
"477","treatment","block 1",14,"1","2600",-0.963092914591143,"saulin_01_vp_14",-0.345808645611622,-1.1965,-0.19213,"EC",0.71871279328083
"478","treatment","block 1",14,"1","2600",-0.963092914591143,"saulin_01_vp_14",-0.345808645611622,-1.1965,-0.19213,"PT",1.34226697289918
"479","treatment","block 1",15,"1","6644",-1.44216354245615,"saulin_01_vp_14",0.4253793166044,-1.1965,-0.19213,"EC",0.71871279328083
"480","treatment","block 1",15,"1","6644",-1.44216354245615,"saulin_01_vp_14",0.4253793166044,-1.1965,-0.19213,"PT",1.34226697289918
"481","treatment","block 1",16,"1","11607",-1.39861166719569,"saulin_01_vp_14",0.666375554796906,-1.1965,-0.19213,"EC",0.71871279328083
"482","treatment","block 1",16,"1","11607",-1.39861166719569,"saulin_01_vp_14",0.666375554796906,-1.1965,-0.19213,"PT",1.34226697289918
"483","treatment","block 1",17,"2","3274",-1.18085229089342,"saulin_01_vp_14",0.666375554796906,-1.1965,-0.19213,"EC",0.71871279328083
"484","treatment","block 1",17,"2","3274",-1.18085229089342,"saulin_01_vp_14",0.666375554796906,-1.1965,-0.19213,"PT",1.34226697289918
"485","treatment","block 1",18,"1","9054",-1.18085229089342,"saulin_01_vp_14",0.4253793166044,-1.1965,-0.19213,"EC",0.71871279328083
"486","treatment","block 1",18,"1","9054",-1.18085229089342,"saulin_01_vp_14",0.4253793166044,-1.1965,-0.19213,"PT",1.34226697289918
"487","treatment","block 1",19,"1","1793",-1.18085229089342,"saulin_01_vp_14",0.184383078411893,-1.1965,-0.19213,"EC",0.71871279328083
"488","treatment","block 1",19,"1","1793",-1.18085229089342,"saulin_01_vp_14",0.184383078411893,-1.1965,-0.19213,"PT",1.34226697289918
"489","treatment","block 1",20,"1","5446",-1.39861166719569,"saulin_01_vp_14",0.762774050073909,-1.1965,-0.19213,"EC",0.71871279328083
"490","treatment","block 1",20,"1","5446",-1.39861166719569,"saulin_01_vp_14",0.762774050073909,-1.1965,-0.19213,"PT",1.34226697289918
"491","treatment","block 1",21,"2","5219",-0.745333538288869,"saulin_01_vp_14",0.666375554796906,-1.1965,-0.19213,"EC",0.71871279328083
"492","treatment","block 1",21,"2","5219",-0.745333538288869,"saulin_01_vp_14",0.666375554796906,-1.1965,-0.19213,"PT",1.34226697289918
"493","treatment","block 1",22,"1","5607",-0.00495165886113449,"saulin_01_vp_14",0.4253793166044,-1.1965,-0.19213,"EC",0.71871279328083
"494","treatment","block 1",22,"1","5607",-0.00495165886113449,"saulin_01_vp_14",0.4253793166044,-1.1965,-0.19213,"PT",1.34226697289918
"495","treatment","block 1",23,"1","6547",-0.527574161986594,"saulin_01_vp_14",0.184383078411893,-1.1965,-0.19213,"EC",0.71871279328083
"496","treatment","block 1",23,"1","6547",-0.527574161986594,"saulin_01_vp_14",0.184383078411893,-1.1965,-0.19213,"PT",1.34226697289918
"497","treatment","block 1",24,"1","3775",-1.18085229089342,"saulin_01_vp_14",0.136183830773392,-1.1965,-0.19213,"EC",0.71871279328083
"498","treatment","block 1",24,"1","3775",-1.18085229089342,"saulin_01_vp_14",0.136183830773392,-1.1965,-0.19213,"PT",1.34226697289918
"499","treatment","block 1",25,"1","7767",-1.39861166719569,"saulin_01_vp_14",0.859172545350911,-1.1965,-0.19213,"EC",0.71871279328083
"500","treatment","block 1",25,"1","7767",-1.39861166719569,"saulin_01_vp_14",0.859172545350911,-1.1965,-0.19213,"PT",1.34226697289918
"501","treatment","block 1",1,"1","4474",-1.83413041980024,"saulin_01_vp_15",0.184383078411893,0.19652,-0.29812,"EC",0.329762340446499
"502","treatment","block 1",1,"1","4474",-1.83413041980024,"saulin_01_vp_15",0.184383078411893,0.19652,-0.29812,"PT",0.0559277905374663
"503","treatment","block 1",2,"2","4365",-0.745333538288869,"saulin_01_vp_15",0.4253793166044,0.19652,-0.29812,"EC",0.329762340446499
"504","treatment","block 1",2,"2","4365",-0.745333538288869,"saulin_01_vp_15",0.4253793166044,0.19652,-0.29812,"PT",0.0559277905374663
"505","treatment","block 1",3,"1","4996",-1.83413041980024,"saulin_01_vp_15",0.666375554796906,0.19652,-0.29812,"EC",0.329762340446499
"506","treatment","block 1",3,"1","4996",-1.83413041980024,"saulin_01_vp_15",0.666375554796906,0.19652,-0.29812,"PT",0.0559277905374663
"507","treatment","block 1",4,"1","1429",-1.8776822950607,"saulin_01_vp_15",0.666375554796906,0.19652,-0.29812,"EC",0.329762340446499
"508","treatment","block 1",4,"1","1429",-1.8776822950607,"saulin_01_vp_15",0.666375554796906,0.19652,-0.29812,"PT",0.0559277905374663
"509","treatment","block 1",5,"1","1272",-1.83413041980024,"saulin_01_vp_15",0.907371792989413,0.19652,-0.29812,"EC",0.329762340446499
"510","treatment","block 1",5,"1","1272",-1.83413041980024,"saulin_01_vp_15",0.907371792989413,0.19652,-0.29812,"PT",0.0559277905374663
"511","treatment","block 1",6,"1","2784",-2.05188979610252,"saulin_01_vp_15",0.280781573688896,0.19652,-0.29812,"EC",0.329762340446499
"512","treatment","block 1",6,"1","2784",-2.05188979610252,"saulin_01_vp_15",0.280781573688896,0.19652,-0.29812,"PT",0.0559277905374663
"513","treatment","block 1",7,"1","1993",-2.05188979610252,"saulin_01_vp_15",0.907371792989413,0.19652,-0.29812,"EC",0.329762340446499
"514","treatment","block 1",7,"1","1993",-2.05188979610252,"saulin_01_vp_15",0.907371792989413,0.19652,-0.29812,"PT",0.0559277905374663
"515","treatment","block 1",8,"1","4165",-2.05188979610252,"saulin_01_vp_15",0.521777811881402,0.19652,-0.29812,"EC",0.329762340446499
"516","treatment","block 1",8,"1","4165",-2.05188979610252,"saulin_01_vp_15",0.521777811881402,0.19652,-0.29812,"PT",0.0559277905374663
"517","treatment","block 1",9,"2","2501",-0.745333538288869,"saulin_01_vp_15",0.666375554796906,0.19652,-0.29812,"EC",0.329762340446499
"518","treatment","block 1",9,"2","2501",-0.745333538288869,"saulin_01_vp_15",0.666375554796906,0.19652,-0.29812,"PT",0.0559277905374663
"519","treatment","block 1",10,"1","5019",-1.83413041980024,"saulin_01_vp_15",0.907371792989413,0.19652,-0.29812,"EC",0.329762340446499
"520","treatment","block 1",10,"1","5019",-1.83413041980024,"saulin_01_vp_15",0.907371792989413,0.19652,-0.29812,"PT",0.0559277905374663
"521","treatment","block 1",11,"2","2479",-0.745333538288869,"saulin_01_vp_15",1.14836803118192,0.19652,-0.29812,"EC",0.329762340446499
"522","treatment","block 1",11,"2","2479",-0.745333538288869,"saulin_01_vp_15",1.14836803118192,0.19652,-0.29812,"PT",0.0559277905374663
"523","treatment","block 1",12,"1","3317",-1.83413041980024,"saulin_01_vp_15",1.10016878354342,0.19652,-0.29812,"EC",0.329762340446499
"524","treatment","block 1",12,"1","3317",-1.83413041980024,"saulin_01_vp_15",1.10016878354342,0.19652,-0.29812,"PT",0.0559277905374663
"525","treatment","block 1",13,"1","6837",-1.96478604558161,"saulin_01_vp_15",1.14836803118192,0.19652,-0.29812,"EC",0.329762340446499
"526","treatment","block 1",13,"1","6837",-1.96478604558161,"saulin_01_vp_15",1.14836803118192,0.19652,-0.29812,"PT",0.0559277905374663
"527","treatment","block 1",14,"1","2820",-2.05188979610252,"saulin_01_vp_15",0.907371792989413,0.19652,-0.29812,"EC",0.329762340446499
"528","treatment","block 1",14,"1","2820",-2.05188979610252,"saulin_01_vp_15",0.907371792989413,0.19652,-0.29812,"PT",0.0559277905374663
"529","treatment","block 1",15,"1","4789",-1.83413041980024,"saulin_01_vp_15",1.14836803118192,0.19652,-0.29812,"EC",0.329762340446499
"530","treatment","block 1",15,"1","4789",-1.83413041980024,"saulin_01_vp_15",1.14836803118192,0.19652,-0.29812,"PT",0.0559277905374663
"531","treatment","block 1",16,"1","3644",-2.05188979610252,"saulin_01_vp_15",0.907371792989413,0.19652,-0.29812,"EC",0.329762340446499
"532","treatment","block 1",16,"1","3644",-2.05188979610252,"saulin_01_vp_15",0.907371792989413,0.19652,-0.29812,"PT",0.0559277905374663
"533","treatment","block 1",17,"2","2750",-1.18085229089342,"saulin_01_vp_15",1.14836803118192,0.19652,-0.29812,"EC",0.329762340446499
"534","treatment","block 1",17,"2","2750",-1.18085229089342,"saulin_01_vp_15",1.14836803118192,0.19652,-0.29812,"PT",0.0559277905374663
"535","treatment","block 1",18,"1","5952",-1.96478604558161,"saulin_01_vp_15",0.907371792989413,0.19652,-0.29812,"EC",0.329762340446499
"536","treatment","block 1",18,"1","5952",-1.96478604558161,"saulin_01_vp_15",0.907371792989413,0.19652,-0.29812,"PT",0.0559277905374663
"537","treatment","block 1",19,"1","1475",-2.05188979610252,"saulin_01_vp_15",1.14836803118192,0.19652,-0.29812,"EC",0.329762340446499
"538","treatment","block 1",19,"1","1475",-2.05188979610252,"saulin_01_vp_15",1.14836803118192,0.19652,-0.29812,"PT",0.0559277905374663
"539","treatment","block 1",20,"1","5541",-1.96478604558161,"saulin_01_vp_15",1.10016878354342,0.19652,-0.29812,"EC",0.329762340446499
"540","treatment","block 1",20,"1","5541",-1.96478604558161,"saulin_01_vp_15",1.10016878354342,0.19652,-0.29812,"PT",0.0559277905374663
"541","treatment","block 1",21,"2","2119",-0.571126037247049,"saulin_01_vp_15",1.14836803118192,0.19652,-0.29812,"EC",0.329762340446499
"542","treatment","block 1",21,"2","2119",-0.571126037247049,"saulin_01_vp_15",1.14836803118192,0.19652,-0.29812,"PT",0.0559277905374663
"543","treatment","block 1",22,"1","2941",-1.8776822950607,"saulin_01_vp_15",0.907371792989413,0.19652,-0.29812,"EC",0.329762340446499
"544","treatment","block 1",22,"1","2941",-1.8776822950607,"saulin_01_vp_15",0.907371792989413,0.19652,-0.29812,"PT",0.0559277905374663
"545","treatment","block 1",23,"1","3097",-2.05188979610252,"saulin_01_vp_15",0.859172545350911,0.19652,-0.29812,"EC",0.329762340446499
"546","treatment","block 1",23,"1","3097",-2.05188979610252,"saulin_01_vp_15",0.859172545350911,0.19652,-0.29812,"PT",0.0559277905374663
"547","treatment","block 1",24,"1","1163",-2.05188979610252,"saulin_01_vp_15",0.907371792989413,0.19652,-0.29812,"EC",0.329762340446499
"548","treatment","block 1",24,"1","1163",-2.05188979610252,"saulin_01_vp_15",0.907371792989413,0.19652,-0.29812,"PT",0.0559277905374663
"549","treatment","block 1",25,"1","1207",-2.05188979610252,"saulin_01_vp_15",1.14836803118192,0.19652,-0.29812,"EC",0.329762340446499
"550","treatment","block 1",25,"1","1207",-2.05188979610252,"saulin_01_vp_15",1.14836803118192,0.19652,-0.29812,"PT",0.0559277905374663
"551","treatment","block 1",1,"1","3969",-1.61637104349797,"saulin_01_vp_16",-1.74358682712816,0.56621,0.00063084,"EC",-0.0591881123878324
"552","treatment","block 1",1,"1","3969",-1.61637104349797,"saulin_01_vp_16",-1.74358682712816,0.56621,0.00063084,"PT",0.377512586127896
"553","treatment","block 1",2,"2","3366",-0.527574161986594,"saulin_01_vp_16",-1.79178607476666,0.56621,0.00063084,"EC",-0.0591881123878324
"554","treatment","block 1",2,"2","3366",-0.527574161986594,"saulin_01_vp_16",-1.79178607476666,0.56621,0.00063084,"PT",0.377512586127896
"555","treatment","block 1",3,"1","2261",-1.83413041980024,"saulin_01_vp_16",-1.74358682712816,0.56621,0.00063084,"EC",-0.0591881123878324
"556","treatment","block 1",3,"1","2261",-1.83413041980024,"saulin_01_vp_16",-1.74358682712816,0.56621,0.00063084,"PT",0.377512586127896
"557","treatment","block 1",4,"1","5880",-1.18085229089342,"saulin_01_vp_16",-1.74358682712816,0.56621,0.00063084,"EC",-0.0591881123878324
"558","treatment","block 1",4,"1","5880",-1.18085229089342,"saulin_01_vp_16",-1.74358682712816,0.56621,0.00063084,"PT",0.377512586127896
"559","treatment","block 1",5,"1","5369",-1.52926729297706,"saulin_01_vp_16",-1.64718833185116,0.56621,0.00063084,"EC",-0.0591881123878324
"560","treatment","block 1",5,"1","5369",-1.52926729297706,"saulin_01_vp_16",-1.64718833185116,0.56621,0.00063084,"PT",0.377512586127896
"561","treatment","block 1",6,"1","4272",-0.527574161986594,"saulin_01_vp_16",-1.74358682712816,0.56621,0.00063084,"EC",-0.0591881123878324
"562","treatment","block 1",6,"1","4272",-0.527574161986594,"saulin_01_vp_16",-1.74358682712816,0.56621,0.00063084,"PT",0.377512586127896
"563","treatment","block 1",7,"1","4414",-0.745333538288869,"saulin_01_vp_16",-1.74358682712816,0.56621,0.00063084,"EC",-0.0591881123878324
"564","treatment","block 1",7,"1","4414",-0.745333538288869,"saulin_01_vp_16",-1.74358682712816,0.56621,0.00063084,"PT",0.377512586127896
"565","treatment","block 1",8,"1","4306",-0.745333538288869,"saulin_01_vp_16",-1.79178607476666,0.56621,0.00063084,"EC",-0.0591881123878324
"566","treatment","block 1",8,"1","4306",-0.745333538288869,"saulin_01_vp_16",-1.79178607476666,0.56621,0.00063084,"PT",0.377512586127896
"567","treatment","block 1",9,"2","3212",-0.0920554093820444,"saulin_01_vp_16",-1.64718833185116,0.56621,0.00063084,"EC",-0.0591881123878324
"568","treatment","block 1",9,"2","3212",-0.0920554093820444,"saulin_01_vp_16",-1.64718833185116,0.56621,0.00063084,"PT",0.377512586127896
"569","treatment","block 1",10,"1","6492",-1.18085229089342,"saulin_01_vp_16",-1.79178607476666,0.56621,0.00063084,"EC",-0.0591881123878324
"570","treatment","block 1",10,"1","6492",-1.18085229089342,"saulin_01_vp_16",-1.79178607476666,0.56621,0.00063084,"PT",0.377512586127896
"571","treatment","block 1",11,"2","5721",-0.963092914591143,"saulin_01_vp_16",-1.74358682712816,0.56621,0.00063084,"EC",-0.0591881123878324
"572","treatment","block 1",11,"2","5721",-0.963092914591143,"saulin_01_vp_16",-1.74358682712816,0.56621,0.00063084,"PT",0.377512586127896
"573","treatment","block 1",12,"1","4844",-1.39861166719569,"saulin_01_vp_16",-1.74358682712816,0.56621,0.00063084,"EC",-0.0591881123878324
"574","treatment","block 1",12,"1","4844",-1.39861166719569,"saulin_01_vp_16",-1.74358682712816,0.56621,0.00063084,"PT",0.377512586127896
"575","treatment","block 1",13,"1","8104",-0.963092914591143,"saulin_01_vp_16",-1.74358682712816,0.56621,0.00063084,"EC",-0.0591881123878324
"576","treatment","block 1",13,"1","8104",-0.963092914591143,"saulin_01_vp_16",-1.74358682712816,0.56621,0.00063084,"PT",0.377512586127896
"577","treatment","block 1",14,"1","5951",-0.963092914591143,"saulin_01_vp_16",-1.64718833185116,0.56621,0.00063084,"EC",-0.0591881123878324
"578","treatment","block 1",14,"1","5951",-0.963092914591143,"saulin_01_vp_16",-1.64718833185116,0.56621,0.00063084,"PT",0.377512586127896
"579","treatment","block 1",15,"1","6848",-0.963092914591143,"saulin_01_vp_16",-1.74358682712816,0.56621,0.00063084,"EC",-0.0591881123878324
"580","treatment","block 1",15,"1","6848",-0.963092914591143,"saulin_01_vp_16",-1.74358682712816,0.56621,0.00063084,"PT",0.377512586127896
"581","treatment","block 1",16,"1","4868",-0.963092914591143,"saulin_01_vp_16",-1.74358682712816,0.56621,0.00063084,"EC",-0.0591881123878324
"582","treatment","block 1",16,"1","4868",-0.963092914591143,"saulin_01_vp_16",-1.74358682712816,0.56621,0.00063084,"PT",0.377512586127896
"583","treatment","block 1",17,"2","3860",-0.527574161986594,"saulin_01_vp_16",-1.74358682712816,0.56621,0.00063084,"EC",-0.0591881123878324
"584","treatment","block 1",17,"2","3860",-0.527574161986594,"saulin_01_vp_16",-1.74358682712816,0.56621,0.00063084,"PT",0.377512586127896
"585","treatment","block 1",18,"1","8066",-0.658229787767959,"saulin_01_vp_16",-1.64718833185116,0.56621,0.00063084,"EC",-0.0591881123878324
"586","treatment","block 1",18,"1","8066",-0.658229787767959,"saulin_01_vp_16",-1.64718833185116,0.56621,0.00063084,"PT",0.377512586127896
"587","treatment","block 1",19,"1","3476",-0.527574161986594,"saulin_01_vp_16",-1.74358682712816,0.56621,0.00063084,"EC",-0.0591881123878324
"588","treatment","block 1",19,"1","3476",-0.527574161986594,"saulin_01_vp_16",-1.74358682712816,0.56621,0.00063084,"PT",0.377512586127896
"589","treatment","block 1",20,"1","2861",-1.18085229089342,"saulin_01_vp_16",-1.50259058893565,0.56621,0.00063084,"EC",-0.0591881123878324
"590","treatment","block 1",20,"1","2861",-1.18085229089342,"saulin_01_vp_16",-1.50259058893565,0.56621,0.00063084,"PT",0.377512586127896
"591","treatment","block 1",21,"2","3527",-0.135607284642499,"saulin_01_vp_16",-1.50259058893565,0.56621,0.00063084,"EC",-0.0591881123878324
"592","treatment","block 1",21,"2","3527",-0.135607284642499,"saulin_01_vp_16",-1.50259058893565,0.56621,0.00063084,"PT",0.377512586127896
"593","treatment","block 1",22,"1","5417",-1.09374854037251,"saulin_01_vp_16",-1.50259058893565,0.56621,0.00063084,"EC",-0.0591881123878324
"594","treatment","block 1",22,"1","5417",-1.09374854037251,"saulin_01_vp_16",-1.50259058893565,0.56621,0.00063084,"PT",0.377512586127896
"595","treatment","block 1",23,"1","5910",-1.61637104349797,"saulin_01_vp_16",-1.74358682712816,0.56621,0.00063084,"EC",-0.0591881123878324
"596","treatment","block 1",23,"1","5910",-1.61637104349797,"saulin_01_vp_16",-1.74358682712816,0.56621,0.00063084,"PT",0.377512586127896
"597","treatment","block 1",24,"1","8337",-1.09374854037251,"saulin_01_vp_16",-1.74358682712816,0.56621,0.00063084,"EC",-0.0591881123878324
"598","treatment","block 1",24,"1","8337",-1.09374854037251,"saulin_01_vp_16",-1.74358682712816,0.56621,0.00063084,"PT",0.377512586127896
"599","treatment","block 1",25,"1","4547",-0.527574161986594,"saulin_01_vp_16",-1.74358682712816,0.56621,0.00063084,"EC",-0.0591881123878324
"600","treatment","block 1",25,"1","4547",-0.527574161986594,"saulin_01_vp_16",-1.74358682712816,0.56621,0.00063084,"PT",0.377512586127896
"601","treatment","block 1",1,"1","6645",-0.963092914591143,"saulin_01_vp_17",-1.50259058893565,0.013037,0.06875,"EC",0.71871279328083
"602","treatment","block 1",1,"1","6645",-0.963092914591143,"saulin_01_vp_17",-1.50259058893565,0.013037,0.06875,"PT",0.377512586127896
"603","treatment","block 1",2,"2","5860",0.866085846347964,"saulin_01_vp_17",-1.26159435074315,0.013037,0.06875,"EC",0.71871279328083
"604","treatment","block 1",2,"2","5860",0.866085846347964,"saulin_01_vp_17",-1.26159435074315,0.013037,0.06875,"PT",0.377512586127896
"605","treatment","block 1",3,"1","5394",-0.963092914591143,"saulin_01_vp_17",-1.26159435074315,0.013037,0.06875,"EC",0.71871279328083
"606","treatment","block 1",3,"1","5394",-0.963092914591143,"saulin_01_vp_17",-1.26159435074315,0.013037,0.06875,"PT",0.377512586127896
"607","treatment","block 1",4,"1","5874",-1.61637104349797,"saulin_01_vp_17",-1.40619209365865,0.013037,0.06875,"EC",0.71871279328083
"608","treatment","block 1",4,"1","5874",-1.61637104349797,"saulin_01_vp_17",-1.40619209365865,0.013037,0.06875,"PT",0.377512586127896
"609","treatment","block 1",5,"1","2596",-1.39861166719569,"saulin_01_vp_17",-1.26159435074315,0.013037,0.06875,"EC",0.71871279328083
"610","treatment","block 1",5,"1","2596",-1.39861166719569,"saulin_01_vp_17",-1.26159435074315,0.013037,0.06875,"PT",0.377512586127896
"611","treatment","block 1",6,"1","4816",-1.18085229089342,"saulin_01_vp_17",-0.779601874358133,0.013037,0.06875,"EC",0.71871279328083
"612","treatment","block 1",6,"1","4816",-1.18085229089342,"saulin_01_vp_17",-0.779601874358133,0.013037,0.06875,"PT",0.377512586127896
"613","treatment","block 1",7,"1","6877",-1.31150791667478,"saulin_01_vp_17",-1.26159435074315,0.013037,0.06875,"EC",0.71871279328083
"614","treatment","block 1",7,"1","6877",-1.31150791667478,"saulin_01_vp_17",-1.26159435074315,0.013037,0.06875,"PT",0.377512586127896
"615","treatment","block 1",8,"1","5125",-0.745333538288869,"saulin_01_vp_17",-1.16519585546614,0.013037,0.06875,"EC",0.71871279328083
"616","treatment","block 1",8,"1","5125",-0.745333538288869,"saulin_01_vp_17",-1.16519585546614,0.013037,0.06875,"PT",0.377512586127896
"617","treatment","block 1",9,"2","7503",1.38870834947342,"saulin_01_vp_17",-1.26159435074315,0.013037,0.06875,"EC",0.71871279328083
"618","treatment","block 1",9,"2","7503",1.38870834947342,"saulin_01_vp_17",-1.26159435074315,0.013037,0.06875,"PT",0.377512586127896
"619","treatment","block 1",10,"1","2409",-1.65992291875842,"saulin_01_vp_17",-0.779601874358133,0.013037,0.06875,"EC",0.71871279328083
"620","treatment","block 1",10,"1","2409",-1.65992291875842,"saulin_01_vp_17",-0.779601874358133,0.013037,0.06875,"PT",0.377512586127896
"621","treatment","block 1",11,"2","1986",1.65001960103615,"saulin_01_vp_17",-1.02059811255064,0.013037,0.06875,"EC",0.71871279328083
"622","treatment","block 1",11,"2","1986",1.65001960103615,"saulin_01_vp_17",-1.02059811255064,0.013037,0.06875,"PT",0.377512586127896
"623","treatment","block 1",12,"1","7207",-1.31150791667478,"saulin_01_vp_17",-1.26159435074315,0.013037,0.06875,"EC",0.71871279328083
"624","treatment","block 1",12,"1","7207",-1.31150791667478,"saulin_01_vp_17",-1.26159435074315,0.013037,0.06875,"PT",0.377512586127896
"625","treatment","block 1",13,"1","5966",-1.18085229089342,"saulin_01_vp_17",-1.26159435074315,0.013037,0.06875,"EC",0.71871279328083
"626","treatment","block 1",13,"1","5966",-1.18085229089342,"saulin_01_vp_17",-1.26159435074315,0.013037,0.06875,"PT",0.377512586127896
"627","treatment","block 1",14,"1","6452",-1.52926729297706,"saulin_01_vp_17",-1.26159435074315,0.013037,0.06875,"EC",0.71871279328083
"628","treatment","block 1",14,"1","6452",-1.52926729297706,"saulin_01_vp_17",-1.26159435074315,0.013037,0.06875,"PT",0.377512586127896
"629","treatment","block 1",15,"1","3559",-1.18085229089342,"saulin_01_vp_17",-1.26159435074315,0.013037,0.06875,"EC",0.71871279328083
"630","treatment","block 1",15,"1","3559",-1.18085229089342,"saulin_01_vp_17",-1.26159435074315,0.013037,0.06875,"PT",0.377512586127896
"631","treatment","block 1",16,"1","7697",0.0821520916597754,"saulin_01_vp_17",-1.26159435074315,0.013037,0.06875,"EC",0.71871279328083
"632","treatment","block 1",16,"1","7697",0.0821520916597754,"saulin_01_vp_17",-1.26159435074315,0.013037,0.06875,"PT",0.377512586127896
"633","treatment","block 1",17,"2","1859",0.778982095827055,"saulin_01_vp_17",-1.26159435074315,0.013037,0.06875,"EC",0.71871279328083
"634","treatment","block 1",17,"2","1859",0.778982095827055,"saulin_01_vp_17",-1.26159435074315,0.013037,0.06875,"PT",0.377512586127896
"635","treatment","block 1",18,"1","5343",-1.31150791667478,"saulin_01_vp_17",-1.02059811255064,0.013037,0.06875,"EC",0.71871279328083
"636","treatment","block 1",18,"1","5343",-1.31150791667478,"saulin_01_vp_17",-1.02059811255064,0.013037,0.06875,"PT",0.377512586127896
"637","treatment","block 1",19,"1","5698",-0.963092914591143,"saulin_01_vp_17",-1.02059811255064,0.013037,0.06875,"EC",0.71871279328083
"638","treatment","block 1",19,"1","5698",-0.963092914591143,"saulin_01_vp_17",-1.02059811255064,0.013037,0.06875,"PT",0.377512586127896
"639","treatment","block 1",20,"1","2949",-1.22440416615387,"saulin_01_vp_17",-1.26159435074315,0.013037,0.06875,"EC",0.71871279328083
"640","treatment","block 1",20,"1","2949",-1.22440416615387,"saulin_01_vp_17",-1.26159435074315,0.013037,0.06875,"PT",0.377512586127896
"641","treatment","block 1",21,"2","8250",0.996741472129329,"saulin_01_vp_17",-1.30979359838165,0.013037,0.06875,"EC",0.71871279328083
"642","treatment","block 1",21,"2","8250",0.996741472129329,"saulin_01_vp_17",-1.30979359838165,0.013037,0.06875,"PT",0.377512586127896
"643","treatment","block 1",22,"1","5461",-1.39861166719569,"saulin_01_vp_17",-1.16519585546614,0.013037,0.06875,"EC",0.71871279328083
"644","treatment","block 1",22,"1","5461",-1.39861166719569,"saulin_01_vp_17",-1.16519585546614,0.013037,0.06875,"PT",0.377512586127896
"645","treatment","block 1",23,"1","5456",-1.18085229089342,"saulin_01_vp_17",-1.26159435074315,0.013037,0.06875,"EC",0.71871279328083
"646","treatment","block 1",23,"1","5456",-1.18085229089342,"saulin_01_vp_17",-1.26159435074315,0.013037,0.06875,"PT",0.377512586127896
"647","treatment","block 1",24,"1","5303",-0.963092914591143,"saulin_01_vp_17",-1.06879736018914,0.013037,0.06875,"EC",0.71871279328083
"648","treatment","block 1",24,"1","5303",-0.963092914591143,"saulin_01_vp_17",-1.06879736018914,0.013037,0.06875,"PT",0.377512586127896
"649","treatment","block 1",25,"1","5925",-0.963092914591143,"saulin_01_vp_17",-1.06879736018914,0.013037,0.06875,"EC",0.71871279328083
"650","treatment","block 1",25,"1","5925",-0.963092914591143,"saulin_01_vp_17",-1.06879736018914,0.013037,0.06875,"PT",0.377512586127896
"651","treatment","block 1",1,"1","2307",-0.0920554093820444,"saulin_01_vp_18",-1.26159435074315,0.33945,0.0066465,"EC",0.329762340446499
"652","treatment","block 1",1,"1","2307",-0.0920554093820444,"saulin_01_vp_18",-1.26159435074315,0.33945,0.0066465,"PT",-1.87358098300511
"653","treatment","block 1",2,"2","4368",-0.135607284642499,"saulin_01_vp_18",-0.779601874358133,0.33945,0.0066465,"EC",0.329762340446499
"654","treatment","block 1",2,"2","4368",-0.135607284642499,"saulin_01_vp_18",-0.779601874358133,0.33945,0.0066465,"PT",-1.87358098300511
"655","treatment","block 1",3,"1","4342",-0.527574161986594,"saulin_01_vp_18",-0.779601874358133,0.33945,0.0066465,"EC",0.329762340446499
"656","treatment","block 1",3,"1","4342",-0.527574161986594,"saulin_01_vp_18",-0.779601874358133,0.33945,0.0066465,"PT",-1.87358098300511
"657","treatment","block 1",4,"1","1856",-0.745333538288869,"saulin_01_vp_18",-0.779601874358133,0.33945,0.0066465,"EC",0.329762340446499
"658","treatment","block 1",4,"1","1856",-0.745333538288869,"saulin_01_vp_18",-0.779601874358133,0.33945,0.0066465,"PT",-1.87358098300511
"659","treatment","block 1",5,"1","3714",-0.527574161986594,"saulin_01_vp_18",-1.06879736018914,0.33945,0.0066465,"EC",0.329762340446499
"660","treatment","block 1",5,"1","3714",-0.527574161986594,"saulin_01_vp_18",-1.06879736018914,0.33945,0.0066465,"PT",-1.87358098300511
"661","treatment","block 1",6,"1","6247",-0.963092914591143,"saulin_01_vp_18",-1.02059811255064,0.33945,0.0066465,"EC",0.329762340446499
"662","treatment","block 1",6,"1","6247",-0.963092914591143,"saulin_01_vp_18",-1.02059811255064,0.33945,0.0066465,"PT",-1.87358098300511
"663","treatment","block 1",7,"1","2654",-0.963092914591143,"saulin_01_vp_18",-0.924199617273637,0.33945,0.0066465,"EC",0.329762340446499
"664","treatment","block 1",7,"1","2654",-0.963092914591143,"saulin_01_vp_18",-0.924199617273637,0.33945,0.0066465,"PT",-1.87358098300511
"665","treatment","block 1",8,"1","2339",-0.963092914591143,"saulin_01_vp_18",-1.26159435074315,0.33945,0.0066465,"EC",0.329762340446499
"666","treatment","block 1",8,"1","2339",-0.963092914591143,"saulin_01_vp_18",-1.26159435074315,0.33945,0.0066465,"PT",-1.87358098300511
"667","treatment","block 1",9,"2","1271",0.996741472129329,"saulin_01_vp_18",-1.02059811255064,0.33945,0.0066465,"EC",0.329762340446499
"668","treatment","block 1",9,"2","1271",0.996741472129329,"saulin_01_vp_18",-1.02059811255064,0.33945,0.0066465,"PT",-1.87358098300511
"669","treatment","block 1",10,"1","4503",-0.527574161986594,"saulin_01_vp_18",-1.02059811255064,0.33945,0.0066465,"EC",0.329762340446499
"670","treatment","block 1",10,"1","4503",-0.527574161986594,"saulin_01_vp_18",-1.02059811255064,0.33945,0.0066465,"PT",-1.87358098300511
"671","treatment","block 1",11,"2","5046",-0.527574161986594,"saulin_01_vp_18",-1.02059811255064,0.33945,0.0066465,"EC",0.329762340446499
"672","treatment","block 1",11,"2","5046",-0.527574161986594,"saulin_01_vp_18",-1.02059811255064,0.33945,0.0066465,"PT",-1.87358098300511
"673","treatment","block 1",12,"1","3035",-0.745333538288869,"saulin_01_vp_18",-0.538605636165627,0.33945,0.0066465,"EC",0.329762340446499
"674","treatment","block 1",12,"1","3035",-0.745333538288869,"saulin_01_vp_18",-0.538605636165627,0.33945,0.0066465,"PT",-1.87358098300511
"675","treatment","block 1",13,"1","4099",-1.18085229089342,"saulin_01_vp_18",-0.779601874358133,0.33945,0.0066465,"EC",0.329762340446499
"676","treatment","block 1",13,"1","4099",-1.18085229089342,"saulin_01_vp_18",-0.779601874358133,0.33945,0.0066465,"PT",-1.87358098300511
"677","treatment","block 1",14,"1","5940",-0.658229787767959,"saulin_01_vp_18",-1.02059811255064,0.33945,0.0066465,"EC",0.329762340446499
"678","treatment","block 1",14,"1","5940",-0.658229787767959,"saulin_01_vp_18",-1.02059811255064,0.33945,0.0066465,"PT",-1.87358098300511
"679","treatment","block 1",15,"1","3289",-0.571126037247049,"saulin_01_vp_18",-0.924199617273637,0.33945,0.0066465,"EC",0.329762340446499
"680","treatment","block 1",15,"1","3289",-0.571126037247049,"saulin_01_vp_18",-0.924199617273637,0.33945,0.0066465,"PT",-1.87358098300511
"681","treatment","block 1",16,"1","2675",-0.963092914591143,"saulin_01_vp_18",-1.26159435074315,0.33945,0.0066465,"EC",0.329762340446499
"682","treatment","block 1",16,"1","2675",-0.963092914591143,"saulin_01_vp_18",-1.26159435074315,0.33945,0.0066465,"PT",-1.87358098300511
"683","treatment","block 1",17,"2","4753",-0.745333538288869,"saulin_01_vp_18",-0.779601874358133,0.33945,0.0066465,"EC",0.329762340446499
"684","treatment","block 1",17,"2","4753",-0.745333538288869,"saulin_01_vp_18",-0.779601874358133,0.33945,0.0066465,"PT",-1.87358098300511
"685","treatment","block 1",18,"1","4312",-0.963092914591143,"saulin_01_vp_18",-0.779601874358133,0.33945,0.0066465,"EC",0.329762340446499
"686","treatment","block 1",18,"1","4312",-0.963092914591143,"saulin_01_vp_18",-0.779601874358133,0.33945,0.0066465,"PT",-1.87358098300511
"687","treatment","block 1",19,"1","2542",-0.527574161986594,"saulin_01_vp_18",-1.26159435074315,0.33945,0.0066465,"EC",0.329762340446499
"688","treatment","block 1",19,"1","2542",-0.527574161986594,"saulin_01_vp_18",-1.26159435074315,0.33945,0.0066465,"PT",-1.87358098300511
"689","treatment","block 1",20,"1","2538",-1.18085229089342,"saulin_01_vp_18",-0.827801121996635,0.33945,0.0066465,"EC",0.329762340446499
"690","treatment","block 1",20,"1","2538",-1.18085229089342,"saulin_01_vp_18",-0.827801121996635,0.33945,0.0066465,"PT",-1.87358098300511
"691","treatment","block 1",21,"2","5428",0.12570396692023,"saulin_01_vp_18",-0.779601874358133,0.33945,0.0066465,"EC",0.329762340446499
"692","treatment","block 1",21,"2","5428",0.12570396692023,"saulin_01_vp_18",-0.779601874358133,0.33945,0.0066465,"PT",-1.87358098300511
"693","treatment","block 1",22,"1","3009",-0.527574161986594,"saulin_01_vp_18",-0.779601874358133,0.33945,0.0066465,"EC",0.329762340446499
"694","treatment","block 1",22,"1","3009",-0.527574161986594,"saulin_01_vp_18",-0.779601874358133,0.33945,0.0066465,"PT",-1.87358098300511
"695","treatment","block 1",23,"1","3859",-0.745333538288869,"saulin_01_vp_18",-1.02059811255064,0.33945,0.0066465,"EC",0.329762340446499
"696","treatment","block 1",23,"1","3859",-0.745333538288869,"saulin_01_vp_18",-1.02059811255064,0.33945,0.0066465,"PT",-1.87358098300511
"697","treatment","block 1",24,"1","3462",-0.745333538288869,"saulin_01_vp_18",-0.779601874358133,0.33945,0.0066465,"EC",0.329762340446499
"698","treatment","block 1",24,"1","3462",-0.745333538288869,"saulin_01_vp_18",-0.779601874358133,0.33945,0.0066465,"PT",-1.87358098300511
"699","treatment","block 1",25,"1","4809",-0.963092914591143,"saulin_01_vp_18",-1.06879736018914,0.33945,0.0066465,"EC",0.329762340446499
"700","treatment","block 1",25,"1","4809",-0.963092914591143,"saulin_01_vp_18",-1.06879736018914,0.33945,0.0066465,"PT",-1.87358098300511
"701","treatment","block 1",1,"1","3249",-1.22440416615387,"saulin_01_vp_19",-0.0566131597806136,0.152,-0.085755,"EC",-0.0591881123878324
"702","treatment","block 1",1,"1","3249",-1.22440416615387,"saulin_01_vp_19",-0.0566131597806136,0.152,-0.085755,"PT",1.02068217730876
"703","treatment","block 1",2,"2","3342",-1.18085229089342,"saulin_01_vp_19",-0.345808645611622,0.152,-0.085755,"EC",-0.0591881123878324
"704","treatment","block 1",2,"2","3342",-1.18085229089342,"saulin_01_vp_19",-0.345808645611622,0.152,-0.085755,"PT",1.02068217730876
"705","treatment","block 1",3,"1","3159",-1.18085229089342,"saulin_01_vp_19",0.184383078411893,0.152,-0.085755,"EC",-0.0591881123878324
"706","treatment","block 1",3,"1","3159",-1.18085229089342,"saulin_01_vp_19",0.184383078411893,0.152,-0.085755,"PT",1.02068217730876
"707","treatment","block 1",4,"1","4145",-1.39861166719569,"saulin_01_vp_19",0.4253793166044,0.152,-0.085755,"EC",-0.0591881123878324
"708","treatment","block 1",4,"1","4145",-1.39861166719569,"saulin_01_vp_19",0.4253793166044,0.152,-0.085755,"PT",1.02068217730876
"709","treatment","block 1",5,"1","1657",-1.18085229089342,"saulin_01_vp_19",0.4253793166044,0.152,-0.085755,"EC",-0.0591881123878324
"710","treatment","block 1",5,"1","1657",-1.18085229089342,"saulin_01_vp_19",0.4253793166044,0.152,-0.085755,"PT",1.02068217730876
"711","treatment","block 1",6,"1","1267",-1.61637104349797,"saulin_01_vp_19",-0.538605636165627,0.152,-0.085755,"EC",-0.0591881123878324
"712","treatment","block 1",6,"1","1267",-1.61637104349797,"saulin_01_vp_19",-0.538605636165627,0.152,-0.085755,"PT",1.02068217730876
"713","treatment","block 1",7,"1","3633",-1.39861166719569,"saulin_01_vp_19",0.184383078411893,0.152,-0.085755,"EC",-0.0591881123878324
"714","treatment","block 1",7,"1","3633",-1.39861166719569,"saulin_01_vp_19",0.184383078411893,0.152,-0.085755,"PT",1.02068217730876
"715","treatment","block 1",8,"1","5806",-1.39861166719569,"saulin_01_vp_19",0.184383078411893,0.152,-0.085755,"EC",-0.0591881123878324
"716","treatment","block 1",8,"1","5806",-1.39861166719569,"saulin_01_vp_19",0.184383078411893,0.152,-0.085755,"PT",1.02068217730876
"717","treatment","block 1",9,"2","2491",-1.44216354245615,"saulin_01_vp_19",0.039785335496389,0.152,-0.085755,"EC",-0.0591881123878324
"718","treatment","block 1",9,"2","2491",-1.44216354245615,"saulin_01_vp_19",0.039785335496389,0.152,-0.085755,"PT",1.02068217730876
"719","treatment","block 1",10,"1","4471",-1.39861166719569,"saulin_01_vp_19",0.184383078411893,0.152,-0.085755,"EC",-0.0591881123878324
"720","treatment","block 1",10,"1","4471",-1.39861166719569,"saulin_01_vp_19",0.184383078411893,0.152,-0.085755,"PT",1.02068217730876
"721","treatment","block 1",11,"2","4315",-0.963092914591143,"saulin_01_vp_19",0.4253793166044,0.152,-0.085755,"EC",-0.0591881123878324
"722","treatment","block 1",11,"2","4315",-0.963092914591143,"saulin_01_vp_19",0.4253793166044,0.152,-0.085755,"PT",1.02068217730876
"723","treatment","block 1",12,"1","4867",-1.09374854037251,"saulin_01_vp_19",0.666375554796906,0.152,-0.085755,"EC",-0.0591881123878324
