"","subj_idx","blockno","trialno","rt","response","id","motive","condition","other_poss_gain"
"1",0,1,1,646,0,"md_as_12","reciprocity","control",120
"2",0,1,2,642,0,"md_as_12","reciprocity","control",40
"3",0,1,3,805,0,"md_as_12","reciprocity","control",360
"4",0,1,4,635,0,"md_as_12","reciprocity","control",180
"5",0,1,5,647,0,"md_as_12","reciprocity","control",380
"6",0,1,6,719,0,"md_as_12","reciprocity","control",300
"7",0,1,7,738,0,"md_as_12","reciprocity","control",20
"8",0,1,8,494,0,"md_as_12","reciprocity","control",360
"9",0,1,9,532,0,"md_as_12","reciprocity","control",160
"10",0,1,10,429,0,"md_as_12","reciprocity","control",240
"11",0,1,11,606,0,"md_as_12","reciprocity","control",340
"12",0,1,12,740,0,"md_as_12","reciprocity","control",380
"13",0,1,13,532,0,"md_as_12","reciprocity","control",320
"14",0,1,14,589,0,"md_as_12","reciprocity","control",60
"15",0,1,15,552,0,"md_as_12","reciprocity","control",280
"16",0,1,16,819,1,"md_as_12","reciprocity","control",320
"17",0,1,17,794,0,"md_as_12","reciprocity","control",160
"18",0,1,18,562,0,"md_as_12","reciprocity","control",220
"19",0,1,19,500,0,"md_as_12","reciprocity","control",20
"20",0,1,20,754,0,"md_as_12","reciprocity","control",380
"21",0,1,21,521,0,"md_as_12","reciprocity","control",180
"22",0,1,22,487,0,"md_as_12","reciprocity","control",100
"23",0,1,23,498,0,"md_as_12","reciprocity","control",100
"24",0,1,24,765,0,"md_as_12","reciprocity","control",360
"25",0,1,25,512,0,"md_as_12","reciprocity","control",60
"26",0,1,26,506,0,"md_as_12","reciprocity","control",240
"27",0,1,27,646,0,"md_as_12","reciprocity","control",40
"28",0,1,28,521,0,"md_as_12","reciprocity","control",280
"29",0,1,29,491,0,"md_as_12","reciprocity","control",360
"30",0,1,30,765,0,"md_as_12","reciprocity","control",380
"31",0,1,31,848,0,"md_as_12","reciprocity","control",340
"32",0,1,32,508,0,"md_as_12","reciprocity","control",300
"33",0,1,33,796,0,"md_as_12","reciprocity","control",120
"34",0,1,34,584,0,"md_as_12","reciprocity","control",220
"35",0,2,1,634,0,"md_as_12","reciprocity","control",120
"36",0,2,2,449,0,"md_as_12","reciprocity","control",40
"37",0,2,3,517,0,"md_as_12","reciprocity","control",360
"38",0,2,4,475,0,"md_as_12","reciprocity","control",180
"39",0,2,5,544,0,"md_as_12","reciprocity","control",380
"40",0,2,6,498,1,"md_as_12","reciprocity","control",300
"41",0,2,7,517,0,"md_as_12","reciprocity","control",20
"42",0,2,8,466,0,"md_as_12","reciprocity","control",360
"43",0,2,9,499,0,"md_as_12","reciprocity","control",160
"44",0,2,10,501,0,"md_as_12","reciprocity","control",240
"45",0,2,11,692,0,"md_as_12","reciprocity","control",340
"46",0,2,12,781,0,"md_as_12","reciprocity","control",380
"47",0,2,13,450,0,"md_as_12","reciprocity","control",320
"48",0,2,14,516,0,"md_as_12","reciprocity","control",60
"49",0,2,15,512,0,"md_as_12","reciprocity","control",280
"50",0,2,16,637,0,"md_as_12","reciprocity","control",320
"51",0,2,17,418,0,"md_as_12","reciprocity","control",160
"52",0,2,18,438,0,"md_as_12","reciprocity","control",220
"53",0,2,19,438,0,"md_as_12","reciprocity","control",20
"54",0,2,20,539,0,"md_as_12","reciprocity","control",380
"55",0,2,21,585,0,"md_as_12","reciprocity","control",180
"56",0,2,22,444,0,"md_as_12","reciprocity","control",100
"57",0,2,23,673,0,"md_as_12","reciprocity","control",100
"58",0,2,24,511,1,"md_as_12","reciprocity","control",360
"59",0,2,25,475,0,"md_as_12","reciprocity","control",60
"60",0,2,26,510,0,"md_as_12","reciprocity","control",240
"61",0,2,27,598,0,"md_as_12","reciprocity","control",40
"62",0,2,28,544,0,"md_as_12","reciprocity","control",280
"63",0,2,29,617,0,"md_as_12","reciprocity","control",360
"64",0,2,30,868,1,"md_as_12","reciprocity","control",380
"65",0,2,31,641,1,"md_as_12","reciprocity","control",340
"66",0,2,32,498,0,"md_as_12","reciprocity","control",300
"67",0,2,33,691,0,"md_as_12","reciprocity","control",120
"68",0,2,34,550,0,"md_as_12","reciprocity","control",220
"69",0,3,1,595,0,"md_as_12","reciprocity","control",320
"70",0,3,2,492,0,"md_as_12","reciprocity","control",120
"71",0,3,3,486,0,"md_as_12","reciprocity","control",100
"72",0,3,4,492,0,"md_as_12","reciprocity","control",300
"73",0,3,5,557,0,"md_as_12","reciprocity","control",20
"74",0,3,6,598,0,"md_as_12","reciprocity","control",40
"75",0,3,7,683,1,"md_as_12","reciprocity","control",380
"76",0,3,8,679,0,"md_as_12","reciprocity","control",220
"77",0,3,9,438,0,"md_as_12","reciprocity","control",160
"78",0,3,10,512,0,"md_as_12","reciprocity","control",100
"79",0,3,11,466,0,"md_as_12","reciprocity","control",300
"80",0,3,12,488,0,"md_as_12","reciprocity","control",360
"81",0,3,13,555,1,"md_as_12","reciprocity","control",380
"82",0,3,14,540,0,"md_as_12","reciprocity","control",280
"83",0,3,15,539,0,"md_as_12","reciprocity","control",280
"84",0,3,16,480,0,"md_as_12","reciprocity","control",20
"85",0,3,17,585,0,"md_as_12","reciprocity","control",360
"86",0,3,18,523,0,"md_as_12","reciprocity","control",60
"87",0,3,19,444,0,"md_as_12","reciprocity","control",160
"88",0,3,20,435,0,"md_as_12","reciprocity","control",220
"89",0,3,21,453,0,"md_as_12","reciprocity","control",320
"90",0,3,22,791,0,"md_as_12","reciprocity","control",380
"91",0,3,23,600,0,"md_as_12","reciprocity","control",380
"92",0,3,24,592,0,"md_as_12","reciprocity","control",340
"93",0,3,25,494,0,"md_as_12","reciprocity","control",180
"94",0,3,26,630,0,"md_as_12","reciprocity","control",360
"95",0,3,27,427,0,"md_as_12","reciprocity","control",40
"96",0,3,28,505,0,"md_as_12","reciprocity","control",340
"97",0,3,29,468,0,"md_as_12","reciprocity","control",360
"98",0,3,30,485,0,"md_as_12","reciprocity","control",240
"99",0,3,31,600,0,"md_as_12","reciprocity","control",240
"100",0,3,32,489,0,"md_as_12","reciprocity","control",60
"101",0,3,33,465,0,"md_as_12","reciprocity","control",120
"102",0,3,34,467,0,"md_as_12","reciprocity","control",180
"103",0,1,1,801,0,"md_as_12","reciprocity","decay",300
"104",0,1,2,517,0,"md_as_12","reciprocity","decay",180
"105",0,1,3,611,0,"md_as_12","reciprocity","decay",240
"106",0,1,4,489,0,"md_as_12","reciprocity","decay",120
"107",0,1,5,593,0,"md_as_12","reciprocity","decay",180
"108",0,1,6,669,0,"md_as_12","reciprocity","decay",340
"109",0,1,7,542,0,"md_as_12","reciprocity","decay",380
"110",0,1,8,748,0,"md_as_12","reciprocity","decay",100
"111",0,1,9,591,1,"md_as_12","reciprocity","decay",340
"112",0,1,10,498,0,"md_as_12","reciprocity","decay",100
"113",0,1,11,506,0,"md_as_12","reciprocity","decay",160
"114",0,1,12,477,0,"md_as_12","reciprocity","decay",220
"115",0,1,13,579,0,"md_as_12","reciprocity","decay",40
"116",0,1,14,603,1,"md_as_12","reciprocity","decay",220
"117",0,1,15,541,0,"md_as_12","reciprocity","decay",300
"118",0,1,16,581,0,"md_as_12","reciprocity","decay",20
"119",0,1,17,486,0,"md_as_12","reciprocity","decay",360
"120",0,1,18,694,0,"md_as_12","reciprocity","decay",40
"121",0,1,19,451,0,"md_as_12","reciprocity","decay",280
"122",0,1,20,555,0,"md_as_12","reciprocity","decay",380
"123",0,1,21,501,0,"md_as_12","reciprocity","decay",60
"124",0,1,22,616,0,"md_as_12","reciprocity","decay",360
"125",0,1,23,576,0,"md_as_12","reciprocity","decay",280
"126",0,1,24,564,0,"md_as_12","reciprocity","decay",60
"127",0,1,25,581,0,"md_as_12","reciprocity","decay",320
"128",0,1,26,722,0,"md_as_12","reciprocity","decay",360
"129",0,1,27,760,0,"md_as_12","reciprocity","decay",320
"130",0,1,28,557,1,"md_as_12","reciprocity","decay",380
"131",0,1,29,527,0,"md_as_12","reciprocity","decay",160
"132",0,1,30,846,0,"md_as_12","reciprocity","decay",20
"133",0,1,31,664,0,"md_as_12","reciprocity","decay",380
"134",0,1,32,602,0,"md_as_12","reciprocity","decay",120
"135",0,1,33,793,0,"md_as_12","reciprocity","decay",360
"136",0,1,34,577,0,"md_as_12","reciprocity","decay",240
"137",0,2,1,666,1,"md_as_12","reciprocity","decay",300
"138",0,2,2,563,0,"md_as_12","reciprocity","decay",180
"139",0,2,3,512,0,"md_as_12","reciprocity","decay",240
"140",0,2,4,549,0,"md_as_12","reciprocity","decay",120
"141",0,2,5,486,0,"md_as_12","reciprocity","decay",180
"142",0,2,6,592,0,"md_as_12","reciprocity","decay",340
"143",0,2,7,657,0,"md_as_12","reciprocity","decay",380
"144",0,2,8,949,0,"md_as_12","reciprocity","decay",100
"145",0,2,9,542,0,"md_as_12","reciprocity","decay",340
"146",0,2,10,567,0,"md_as_12","reciprocity","decay",100
"147",0,2,11,493,0,"md_as_12","reciprocity","decay",160
"148",0,2,12,526,0,"md_as_12","reciprocity","decay",220
"149",0,2,13,513,0,"md_as_12","reciprocity","decay",40
"150",0,2,14,707,0,"md_as_12","reciprocity","decay",220
"151",0,2,15,505,0,"md_as_12","reciprocity","decay",300
"152",0,2,16,523,0,"md_as_12","reciprocity","decay",20
"153",0,2,17,452,0,"md_as_12","reciprocity","decay",360
"154",0,2,18,714,0,"md_as_12","reciprocity","decay",40
"155",0,2,19,542,0,"md_as_12","reciprocity","decay",280
"156",0,2,20,616,0,"md_as_12","reciprocity","decay",380
"157",0,2,21,567,0,"md_as_12","reciprocity","decay",60
"158",0,2,22,604,0,"md_as_12","reciprocity","decay",360
"159",0,2,23,573,0,"md_as_12","reciprocity","decay",280
"160",0,2,24,649,0,"md_as_12","reciprocity","decay",60
"161",0,2,25,509,0,"md_as_12","reciprocity","decay",320
"162",0,2,26,822,1,"md_as_12","reciprocity","decay",360
"163",0,2,27,482,0,"md_as_12","reciprocity","decay",320
"164",0,2,28,638,1,"md_as_12","reciprocity","decay",380
"165",0,2,29,554,0,"md_as_12","reciprocity","decay",160
"166",0,2,30,480,0,"md_as_12","reciprocity","decay",20
"167",0,2,31,670,0,"md_as_12","reciprocity","decay",380
"168",0,2,32,596,0,"md_as_12","reciprocity","decay",120
"169",0,2,33,675,0,"md_as_12","reciprocity","decay",360
"170",0,2,34,649,0,"md_as_12","reciprocity","decay",240
"171",0,3,1,887,0,"md_as_12","reciprocity","decay",380
"172",0,3,2,946,0,"md_as_12","reciprocity","decay",380
"173",0,3,3,799,0,"md_as_12","reciprocity","decay",240
"174",0,3,4,614,0,"md_as_12","reciprocity","decay",320
"175",0,3,5,578,0,"md_as_12","reciprocity","decay",100
"176",0,3,6,722,1,"md_as_12","reciprocity","decay",40
"177",0,3,7,558,0,"md_as_12","reciprocity","decay",360
"178",0,3,8,785,0,"md_as_12","reciprocity","decay",60
"179",0,3,9,478,0,"md_as_12","reciprocity","decay",220
"180",0,3,10,706,1,"md_as_12","reciprocity","decay",240
"181",0,3,11,530,0,"md_as_12","reciprocity","decay",100
"182",0,3,12,811,0,"md_as_12","reciprocity","decay",220
"183",0,3,13,571,0,"md_as_12","reciprocity","decay",160
"184",0,3,14,795,0,"md_as_12","reciprocity","decay",340
"185",0,3,15,472,0,"md_as_12","reciprocity","decay",360
"186",0,3,16,516,0,"md_as_12","reciprocity","decay",20
"187",0,3,17,689,0,"md_as_12","reciprocity","decay",180
"188",0,3,18,707,0,"md_as_12","reciprocity","decay",180
"189",0,3,19,941,0,"md_as_12","reciprocity","decay",380
"190",0,3,20,778,0,"md_as_12","reciprocity","decay",320
"191",0,3,21,777,1,"md_as_12","reciprocity","decay",360
"192",0,3,22,635,0,"md_as_12","reciprocity","decay",380
"193",0,3,23,668,0,"md_as_12","reciprocity","decay",280
"194",0,3,24,832,0,"md_as_12","reciprocity","decay",300
"195",0,3,25,629,0,"md_as_12","reciprocity","decay",160
"196",0,3,26,672,0,"md_as_12","reciprocity","decay",20
"197",0,3,27,574,0,"md_as_12","reciprocity","decay",280
"198",0,3,28,700,1,"md_as_12","reciprocity","decay",360
"199",0,3,29,591,0,"md_as_12","reciprocity","decay",300
"200",0,3,30,525,0,"md_as_12","reciprocity","decay",40
"201",0,3,31,559,0,"md_as_12","reciprocity","decay",340
"202",0,3,32,514,0,"md_as_12","reciprocity","decay",60
"203",0,3,33,562,0,"md_as_12","reciprocity","decay",120
"204",0,3,34,918,0,"md_as_12","reciprocity","decay",120
"205",1,1,1,1049,0,"md_as_13","reciprocity","decay",160
"206",1,1,2,1407,0,"md_as_13","reciprocity","decay",120
"207",1,1,3,1685,0,"md_as_13","reciprocity","decay",120
"208",1,1,4,1087,0,"md_as_13","reciprocity","decay",20
"209",1,1,5,1098,1,"md_as_13","reciprocity","decay",320
"210",1,1,6,1577,1,"md_as_13","reciprocity","decay",300
"211",1,1,7,1088,1,"md_as_13","reciprocity","decay",380
"212",1,1,8,881,1,"md_as_13","reciprocity","decay",380
"213",1,1,9,1450,1,"md_as_13","reciprocity","decay",40
"214",1,1,10,883,1,"md_as_13","reciprocity","decay",300
"215",1,1,11,1499,0,"md_as_13","reciprocity","decay",380
"216",1,1,12,1677,0,"md_as_13","reciprocity","decay",180
"217",1,1,13,921,1,"md_as_13","reciprocity","decay",280
"218",1,1,14,1552,0,"md_as_13","reciprocity","decay",20
"219",1,1,15,1478,0,"md_as_13","reciprocity","decay",100
"220",1,1,16,917,1,"md_as_13","reciprocity","decay",340
"221",1,1,17,1060,1,"md_as_13","reciprocity","decay",360
"222",1,1,18,1618,1,"md_as_13","reciprocity","decay",320
"223",1,1,19,1103,1,"md_as_13","reciprocity","decay",100
"224",1,1,20,1117,1,"md_as_13","reciprocity","decay",220
"225",1,1,21,1660,0,"md_as_13","reciprocity","decay",220
"226",1,1,22,2034,0,"md_as_13","reciprocity","decay",360
"227",1,1,23,1839,0,"md_as_13","reciprocity","decay",240
"228",1,1,24,918,1,"md_as_13","reciprocity","decay",380
"229",1,1,25,1469,1,"md_as_13","reciprocity","decay",340
"230",1,1,26,1654,1,"md_as_13","reciprocity","decay",360
"231",1,1,27,917,1,"md_as_13","reciprocity","decay",240
"232",1,1,28,1493,1,"md_as_13","reciprocity","decay",160
"233",1,1,29,977,1,"md_as_13","reciprocity","decay",360
"234",1,1,30,1826,0,"md_as_13","reciprocity","decay",60
"235",1,1,31,2407,0,"md_as_13","reciprocity","decay",280
"236",1,1,32,1518,0,"md_as_13","reciprocity","decay",60
"237",1,1,33,1202,1,"md_as_13","reciprocity","decay",180
"238",1,1,34,1555,0,"md_as_13","reciprocity","decay",40
"239",1,2,1,1288,1,"md_as_13","reciprocity","decay",160
"240",1,2,2,1784,0,"md_as_13","reciprocity","decay",120
"241",1,2,3,1468,0,"md_as_13","reciprocity","decay",120
"242",1,2,4,2227,0,"md_as_13","reciprocity","decay",20
"243",1,2,5,1185,1,"md_as_13","reciprocity","decay",320
"244",1,2,6,1821,1,"md_as_13","reciprocity","decay",300
"245",1,2,7,2102,1,"md_as_13","reciprocity","decay",380
"246",1,2,8,1460,1,"md_as_13","reciprocity","decay",380
"247",1,2,9,1836,1,"md_as_13","reciprocity","decay",40
"248",1,2,10,1861,1,"md_as_13","reciprocity","decay",300
"249",1,2,11,1187,0,"md_as_13","reciprocity","decay",380
"250",1,2,12,2221,0,"md_as_13","reciprocity","decay",180
"251",1,2,13,1032,1,"md_as_13","reciprocity","decay",280
"252",1,2,14,1834,0,"md_as_13","reciprocity","decay",20
"253",1,2,15,1666,0,"md_as_13","reciprocity","decay",100
"254",1,2,16,1544,1,"md_as_13","reciprocity","decay",340
"255",1,2,17,2186,1,"md_as_13","reciprocity","decay",360
"256",1,2,18,1259,1,"md_as_13","reciprocity","decay",320
"257",1,2,19,1612,0,"md_as_13","reciprocity","decay",100
"258",1,2,20,1536,0,"md_as_13","reciprocity","decay",220
"259",1,2,21,1887,1,"md_as_13","reciprocity","decay",220
"260",1,2,22,1614,1,"md_as_13","reciprocity","decay",360
"261",1,2,23,2074,1,"md_as_13","reciprocity","decay",240
"262",1,2,24,1385,1,"md_as_13","reciprocity","decay",380
"263",1,2,25,2195,1,"md_as_13","reciprocity","decay",340
"264",1,2,26,1512,1,"md_as_13","reciprocity","decay",360
"265",1,2,27,1667,1,"md_as_13","reciprocity","decay",240
"266",1,2,28,2110,1,"md_as_13","reciprocity","decay",160
"267",1,2,29,1736,1,"md_as_13","reciprocity","decay",360
"268",1,2,30,1698,0,"md_as_13","reciprocity","decay",60
"269",1,2,31,2083,1,"md_as_13","reciprocity","decay",280
"270",1,2,32,2068,0,"md_as_13","reciprocity","decay",60
"271",1,2,33,2479,0,"md_as_13","reciprocity","decay",180
"272",1,2,34,1281,1,"md_as_13","reciprocity","decay",40
"273",1,3,1,1342,1,"md_as_13","reciprocity","decay",240
"274",1,3,2,1330,0,"md_as_13","reciprocity","decay",20
"275",1,3,3,1426,0,"md_as_13","reciprocity","decay",40
"276",1,3,4,994,1,"md_as_13","reciprocity","decay",320
"277",1,3,5,1817,1,"md_as_13","reciprocity","decay",180
"278",1,3,6,1818,0,"md_as_13","reciprocity","decay",60
"279",1,3,7,1401,1,"md_as_13","reciprocity","decay",100
"280",1,3,8,1816,0,"md_as_13","reciprocity","decay",120
"281",1,3,9,1166,1,"md_as_13","reciprocity","decay",280
"282",1,3,10,2025,0,"md_as_13","reciprocity","decay",300
"283",1,3,11,1619,0,"md_as_13","reciprocity","decay",160
"284",1,3,12,1256,1,"md_as_13","reciprocity","decay",360
"285",1,3,13,1108,0,"md_as_13","reciprocity","decay",380
"286",1,3,14,1763,1,"md_as_13","reciprocity","decay",180
"287",1,3,15,1036,1,"md_as_13","reciprocity","decay",380
"288",1,3,16,1657,0,"md_as_13","reciprocity","decay",60
"289",1,3,17,1256,1,"md_as_13","reciprocity","decay",300
"290",1,3,18,1682,1,"md_as_13","reciprocity","decay",380
"291",1,3,19,2005,0,"md_as_13","reciprocity","decay",20
"292",1,3,20,1919,1,"md_as_13","reciprocity","decay",340
"293",1,3,21,1839,1,"md_as_13","reciprocity","decay",220
"294",1,3,22,2057,0,"md_as_13","reciprocity","decay",160
"295",1,3,23,1924,1,"md_as_13","reciprocity","decay",360
"296",1,3,24,2455,0,"md_as_13","reciprocity","decay",100
"297",1,3,25,1779,0,"md_as_13","reciprocity","decay",40
"298",1,3,26,1277,1,"md_as_13","reciprocity","decay",340
"299",1,3,27,1398,1,"md_as_13","reciprocity","decay",220
"300",1,3,28,1441,1,"md_as_13","reciprocity","decay",380
"301",1,3,29,1635,1,"md_as_13","reciprocity","decay",280
"302",1,3,30,1770,1,"md_as_13","reciprocity","decay",320
"303",1,3,31,1785,0,"md_as_13","reciprocity","decay",120
"304",1,3,32,1956,1,"md_as_13","reciprocity","decay",360
"305",1,3,33,1393,1,"md_as_13","reciprocity","decay",360
"306",1,3,34,1273,1,"md_as_13","reciprocity","decay",240
"307",1,1,1,1616,0,"md_as_13","reciprocity","control",300
"308",1,1,2,1321,1,"md_as_13","reciprocity","control",360
"309",1,1,3,1362,0,"md_as_13","reciprocity","control",240
"310",1,1,4,2140,1,"md_as_13","reciprocity","control",220
"311",1,1,5,1314,1,"md_as_13","reciprocity","control",380
"312",1,1,6,1861,0,"md_as_13","reciprocity","control",40
"313",1,1,7,1892,1,"md_as_13","reciprocity","control",60
"314",1,1,8,1228,1,"md_as_13","reciprocity","control",180
"315",1,1,9,1801,0,"md_as_13","reciprocity","control",60
"316",1,1,10,1500,1,"md_as_13","reciprocity","control",340
"317",1,1,11,1004,1,"md_as_13","reciprocity","control",20
"318",1,1,12,1058,1,"md_as_13","reciprocity","control",120
"319",1,1,13,1704,1,"md_as_13","reciprocity","control",360
"320",1,1,14,1925,1,"md_as_13","reciprocity","control",180
"321",1,1,15,1661,1,"md_as_13","reciprocity","control",380
"322",1,1,16,1224,0,"md_as_13","reciprocity","control",380
"323",1,1,17,2256,0,"md_as_13","reciprocity","control",220
"324",1,1,18,1602,1,"md_as_13","reciprocity","control",20
"325",1,1,19,1468,0,"md_as_13","reciprocity","control",120
"326",1,1,20,2102,0,"md_as_13","reciprocity","control",240
"327",1,1,21,1449,1,"md_as_13","reciprocity","control",280
"328",1,1,22,1153,1,"md_as_13","reciprocity","control",380
"329",1,1,23,1856,0,"md_as_13","reciprocity","control",100
"330",1,1,24,2122,1,"md_as_13","reciprocity","control",160
"331",1,1,25,2587,0,"md_as_13","reciprocity","control",160
"332",1,1,26,1909,1,"md_as_13","reciprocity","control",280
"333",1,1,27,1569,1,"md_as_13","reciprocity","control",340
"334",1,1,28,1828,1,"md_as_13","reciprocity","control",320
"335",1,1,29,1607,0,"md_as_13","reciprocity","control",320
"336",1,1,30,1614,1,"md_as_13","reciprocity","control",100
"337",1,1,31,1221,1,"md_as_13","reciprocity","control",360
"338",1,1,32,1996,1,"md_as_13","reciprocity","control",300
"339",1,1,33,1879,0,"md_as_13","reciprocity","control",40
"340",1,1,34,1807,1,"md_as_13","reciprocity","control",360
"341",1,2,1,1705,1,"md_as_13","reciprocity","control",300
"342",1,2,2,1831,1,"md_as_13","reciprocity","control",360
"343",1,2,3,1384,1,"md_as_13","reciprocity","control",240
"344",1,2,4,1629,1,"md_as_13","reciprocity","control",220
"345",1,2,5,1032,1,"md_as_13","reciprocity","control",380
"346",1,2,6,1904,0,"md_as_13","reciprocity","control",40
"347",1,2,7,1297,1,"md_as_13","reciprocity","control",60
"348",1,2,8,1462,1,"md_as_13","reciprocity","control",180
"349",1,2,9,1407,0,"md_as_13","reciprocity","control",60
"350",1,2,10,2216,1,"md_as_13","reciprocity","control",340
"351",1,2,11,1766,1,"md_as_13","reciprocity","control",20
"352",1,2,12,1849,0,"md_as_13","reciprocity","control",120
"353",1,2,13,1542,1,"md_as_13","reciprocity","control",360
"354",1,2,14,1482,0,"md_as_13","reciprocity","control",180
"355",1,2,15,1246,1,"md_as_13","reciprocity","control",380
"356",1,2,16,1332,0,"md_as_13","reciprocity","control",380
"357",1,2,17,1525,1,"md_as_13","reciprocity","control",220
"358",1,2,18,1991,0,"md_as_13","reciprocity","control",20
"359",1,2,19,1913,0,"md_as_13","reciprocity","control",120
"360",1,2,20,2071,0,"md_as_13","reciprocity","control",240
"361",1,2,21,1549,1,"md_as_13","reciprocity","control",280
"362",1,2,22,1427,1,"md_as_13","reciprocity","control",380
"363",1,2,23,1835,0,"md_as_13","reciprocity","control",100
"364",1,2,24,1940,1,"md_as_13","reciprocity","control",160
"365",1,2,25,2037,1,"md_as_13","reciprocity","control",160
"366",1,2,26,1499,1,"md_as_13","reciprocity","control",280
"367",1,2,27,1554,1,"md_as_13","reciprocity","control",340
"368",1,2,28,1723,1,"md_as_13","reciprocity","control",320
"369",1,2,29,1556,1,"md_as_13","reciprocity","control",320
"370",1,2,30,2430,1,"md_as_13","reciprocity","control",100
"371",1,2,31,2145,1,"md_as_13","reciprocity","control",360
"372",1,2,32,2130,1,"md_as_13","reciprocity","control",300
"373",1,2,33,1377,1,"md_as_13","reciprocity","control",40
"374",1,2,34,1161,1,"md_as_13","reciprocity","control",360
"375",1,3,1,1431,0,"md_as_13","reciprocity","control",100
"376",1,3,2,1156,0,"md_as_13","reciprocity","control",300
"377",1,3,3,1995,1,"md_as_13","reciprocity","control",120
"378",1,3,4,1113,1,"md_as_13","reciprocity","control",180
"379",1,3,5,1511,0,"md_as_13","reciprocity","control",300
"380",1,3,6,1694,1,"md_as_13","reciprocity","control",280
"381",1,3,7,1544,0,"md_as_13","reciprocity","control",40
"382",1,3,8,1734,1,"md_as_13","reciprocity","control",360
"383",1,3,9,1597,0,"md_as_13","reciprocity","control",60
"384",1,3,10,1548,0,"md_as_13","reciprocity","control",380
"385",1,3,11,1919,0,"md_as_13","reciprocity","control",220
"386",1,3,12,1167,1,"md_as_13","reciprocity","control",380
"387",1,3,13,1798,0,"md_as_13","reciprocity","control",40
"388",1,3,14,1962,1,"md_as_13","reciprocity","control",360
"389",1,3,15,1313,1,"md_as_13","reciprocity","control",380
"390",1,3,16,1486,1,"md_as_13","reciprocity","control",360
"391",1,3,17,2233,0,"md_as_13","reciprocity","control",20
"392",1,3,18,1733,1,"md_as_13","reciprocity","control",320
"393",1,3,19,1887,1,"md_as_13","reciprocity","control",280
"394",1,3,20,2015,0,"md_as_13","reciprocity","control",20
"395",1,3,21,1524,1,"md_as_13","reciprocity","control",240
"396",1,3,22,1785,1,"md_as_13","reciprocity","control",120
"397",1,3,23,1203,0,"md_as_13","reciprocity","control",160
"398",1,3,24,1581,1,"md_as_13","reciprocity","control",100
"399",1,3,25,1617,1,"md_as_13","reciprocity","control",380
"400",1,3,26,1649,1,"md_as_13","reciprocity","control",360
"401",1,3,27,1580,1,"md_as_13","reciprocity","control",220
"402",1,3,28,2128,0,"md_as_13","reciprocity","control",60
"403",1,3,29,1558,1,"md_as_13","reciprocity","control",240
"404",1,3,30,1950,0,"md_as_13","reciprocity","control",340
"405",1,3,31,1529,1,"md_as_13","reciprocity","control",160
"406",1,3,32,1378,1,"md_as_13","reciprocity","control",340
"407",1,3,33,2073,1,"md_as_13","reciprocity","control",320
"408",1,3,34,1838,1,"md_as_13","reciprocity","control",180
"409",2,1,1,1837,0,"md_as_14","reciprocity","decay",340
"410",2,1,2,2200,1,"md_as_14","reciprocity","decay",360
"411",2,1,3,2776,1,"md_as_14","reciprocity","decay",380
"412",2,1,4,1733,0,"md_as_14","reciprocity","decay",320
"413",2,1,5,1731,1,"md_as_14","reciprocity","decay",280
"414",2,1,6,1221,1,"md_as_14","reciprocity","decay",280
"415",2,1,7,1443,0,"md_as_14","reciprocity","decay",360
"416",2,1,8,1521,0,"md_as_14","reciprocity","decay",380
"417",2,1,9,1282,1,"md_as_14","reciprocity","decay",220
"418",2,1,10,3029,0,"md_as_14","reciprocity","decay",160
"419",2,1,11,1302,1,"md_as_14","reciprocity","decay",380
"420",2,1,12,2106,0,"md_as_14","reciprocity","decay",180
"421",2,1,13,2008,1,"md_as_14","reciprocity","decay",60
"422",2,1,14,1921,0,"md_as_14","reciprocity","decay",120
"423",2,1,15,2030,1,"md_as_14","reciprocity","decay",340
"424",2,1,16,2177,0,"md_as_14","reciprocity","decay",40
"425",2,1,17,2568,1,"md_as_14","reciprocity","decay",360
"426",2,1,18,1435,1,"md_as_14","reciprocity","decay",360
"427",2,1,19,1349,1,"md_as_14","reciprocity","decay",240
"428",2,1,20,1563,0,"md_as_14","reciprocity","decay",160
"429",2,1,21,1373,1,"md_as_14","reciprocity","decay",320
"430",2,1,22,2531,0,"md_as_14","reciprocity","decay",20
"431",2,1,23,1978,0,"md_as_14","reciprocity","decay",100
"432",2,1,24,1648,1,"md_as_14","reciprocity","decay",300
"433",2,1,25,1616,1,"md_as_14","reciprocity","decay",100
"434",2,1,26,2516,1,"md_as_14","reciprocity","decay",220
"435",2,1,27,3085,1,"md_as_14","reciprocity","decay",60
"436",2,1,28,889,0,"md_as_14","reciprocity","decay",240
"437",2,1,29,1127,0,"md_as_14","reciprocity","decay",300
"438",2,1,30,2215,1,"md_as_14","reciprocity","decay",40
"439",2,1,31,1486,1,"md_as_14","reciprocity","decay",120
"440",2,1,32,1190,1,"md_as_14","reciprocity","decay",380
"441",2,1,33,2459,0,"md_as_14","reciprocity","decay",20
"442",2,1,34,1623,1,"md_as_14","reciprocity","decay",180
"443",2,2,1,2429,1,"md_as_14","reciprocity","decay",340
"444",2,2,2,1717,1,"md_as_14","reciprocity","decay",360
"445",2,2,3,1548,1,"md_as_14","reciprocity","decay",380
"446",2,2,4,1629,0,"md_as_14","reciprocity","decay",320
"447",2,2,5,1987,0,"md_as_14","reciprocity","decay",280
"448",2,2,6,1126,1,"md_as_14","reciprocity","decay",280
"449",2,2,7,1289,0,"md_as_14","reciprocity","decay",360
"450",2,2,8,2018,0,"md_as_14","reciprocity","decay",380
"451",2,2,9,1663,0,"md_as_14","reciprocity","decay",220
"452",2,2,10,1308,1,"md_as_14","reciprocity","decay",160
"453",2,2,11,1656,1,"md_as_14","reciprocity","decay",380
"454",2,2,12,1067,0,"md_as_14","reciprocity","decay",180
"455",2,2,13,1440,0,"md_as_14","reciprocity","decay",60
"456",2,2,14,2040,1,"md_as_14","reciprocity","decay",120
"457",2,2,15,1294,1,"md_as_14","reciprocity","decay",340
"458",2,2,16,1267,1,"md_as_14","reciprocity","decay",40
"459",2,2,17,1144,0,"md_as_14","reciprocity","decay",360
"460",2,2,18,1355,1,"md_as_14","reciprocity","decay",360
"461",2,2,19,977,1,"md_as_14","reciprocity","decay",240
"462",2,2,20,1198,0,"md_as_14","reciprocity","decay",160
"463",2,2,21,1534,0,"md_as_14","reciprocity","decay",320
"464",2,2,22,987,1,"md_as_14","reciprocity","decay",20
"465",2,2,23,1615,1,"md_as_14","reciprocity","decay",100
"466",2,2,24,1341,1,"md_as_14","reciprocity","decay",300
"467",2,2,25,1281,1,"md_as_14","reciprocity","decay",100
"468",2,2,26,1059,1,"md_as_14","reciprocity","decay",220
"469",2,2,27,1958,0,"md_as_14","reciprocity","decay",60
"470",2,2,28,1418,1,"md_as_14","reciprocity","decay",240
"471",2,2,29,944,0,"md_as_14","reciprocity","decay",300
"472",2,2,30,1883,0,"md_as_14","reciprocity","decay",40
"473",2,2,31,1593,1,"md_as_14","reciprocity","decay",120
"474",2,2,32,1280,1,"md_as_14","reciprocity","decay",380
"475",2,2,33,2224,0,"md_as_14","reciprocity","decay",20
"476",2,2,34,1981,1,"md_as_14","reciprocity","decay",180
"477",2,3,1,1311,0,"md_as_14","reciprocity","decay",120
"478",2,3,2,1601,1,"md_as_14","reciprocity","decay",380
"479",2,3,3,850,0,"md_as_14","reciprocity","decay",360
"480",2,3,4,1192,0,"md_as_14","reciprocity","decay",160
"481",2,3,5,2855,1,"md_as_14","reciprocity","decay",360
"482",2,3,6,928,0,"md_as_14","reciprocity","decay",100
"483",2,3,7,1274,0,"md_as_14","reciprocity","decay",60
"484",2,3,8,745,0,"md_as_14","reciprocity","decay",100
"485",2,3,9,1223,0,"md_as_14","reciprocity","decay",380
"486",2,3,10,1418,1,"md_as_14","reciprocity","decay",320
"487",2,3,11,1344,0,"md_as_14","reciprocity","decay",300
"488",2,3,12,1014,0,"md_as_14","reciprocity","decay",180
"489",2,3,13,840,0,"md_as_14","reciprocity","decay",40
"490",2,3,14,717,0,"md_as_14","reciprocity","decay",180
"491",2,3,15,1351,0,"md_as_14","reciprocity","decay",360
"492",2,3,16,855,0,"md_as_14","reciprocity","decay",280
"493",2,3,17,2446,0,"md_as_14","reciprocity","decay",20
"494",2,3,18,1479,1,"md_as_14","reciprocity","decay",340
"495",2,3,19,1198,0,"md_as_14","reciprocity","decay",280
"496",2,3,20,1349,0,"md_as_14","reciprocity","decay",120
"497",2,3,21,1563,1,"md_as_14","reciprocity","decay",240
"498",2,3,22,1889,0,"md_as_14","reciprocity","decay",40
"499",2,3,23,2432,0,"md_as_14","reciprocity","decay",380
"500",2,3,24,729,0,"md_as_14","reciprocity","decay",20
"501",2,3,25,1404,1,"md_as_14","reciprocity","decay",340
"502",2,3,26,1326,1,"md_as_14","reciprocity","decay",380
"503",2,3,27,2728,1,"md_as_14","reciprocity","decay",360
"504",2,3,28,987,0,"md_as_14","reciprocity","decay",160
"505",2,3,29,1017,0,"md_as_14","reciprocity","decay",220
"506",2,3,30,1024,0,"md_as_14","reciprocity","decay",220
"507",2,3,31,785,0,"md_as_14","reciprocity","decay",60
"508",2,3,32,1597,0,"md_as_14","reciprocity","decay",240
"509",2,3,33,1672,1,"md_as_14","reciprocity","decay",320
"510",2,3,34,1202,1,"md_as_14","reciprocity","decay",300
"511",2,1,1,1888,1,"md_as_14","reciprocity","control",120
"512",2,1,2,1371,1,"md_as_14","reciprocity","control",180
"513",2,1,3,1816,0,"md_as_14","reciprocity","control",220
"514",2,1,4,1115,1,"md_as_14","reciprocity","control",280
"515",2,1,5,2274,1,"md_as_14","reciprocity","control",100
"516",2,1,6,937,0,"md_as_14","reciprocity","control",160
"517",2,1,7,1228,0,"md_as_14","reciprocity","control",280
"518",2,1,8,990,1,"md_as_14","reciprocity","control",320
"519",2,1,9,1016,1,"md_as_14","reciprocity","control",300
"520",2,1,10,1388,0,"md_as_14","reciprocity","control",240
"521",2,1,11,1595,0,"md_as_14","reciprocity","control",40
"522",2,1,12,1845,1,"md_as_14","reciprocity","control",220
"523",2,1,13,1181,1,"md_as_14","reciprocity","control",340
"524",2,1,14,1437,1,"md_as_14","reciprocity","control",60
"525",2,1,15,1340,1,"md_as_14","reciprocity","control",360
"526",2,1,16,1600,1,"md_as_14","reciprocity","control",160
"527",2,1,17,1756,1,"md_as_14","reciprocity","control",360
"528",2,1,18,2053,1,"md_as_14","reciprocity","control",360
"529",2,1,19,3108,0,"md_as_14","reciprocity","control",380
"530",2,1,20,2245,1,"md_as_14","reciprocity","control",380
"531",2,1,21,1776,0,"md_as_14","reciprocity","control",20
"532",2,1,22,1137,0,"md_as_14","reciprocity","control",60
"533",2,1,23,2235,0,"md_as_14","reciprocity","control",180
"534",2,1,24,1770,0,"md_as_14","reciprocity","control",360
"535",2,1,25,1304,1,"md_as_14","reciprocity","control",120
"536",2,1,26,1741,1,"md_as_14","reciprocity","control",340
"537",2,1,27,2019,0,"md_as_14","reciprocity","control",20
"538",2,1,28,2295,0,"md_as_14","reciprocity","control",100
"539",2,1,29,2331,0,"md_as_14","reciprocity","control",40
"540",2,1,30,892,1,"md_as_14","reciprocity","control",380
"541",2,1,31,1666,1,"md_as_14","reciprocity","control",380
"542",2,1,32,2407,0,"md_as_14","reciprocity","control",300
"543",2,1,33,1084,1,"md_as_14","reciprocity","control",320
"544",2,1,34,2013,0,"md_as_14","reciprocity","control",240
"545",2,2,1,1662,0,"md_as_14","reciprocity","control",120
"546",2,2,2,1384,1,"md_as_14","reciprocity","control",180
"547",2,2,3,906,1,"md_as_14","reciprocity","control",220
"548",2,2,4,1242,1,"md_as_14","reciprocity","control",280
"549",2,2,5,2327,0,"md_as_14","reciprocity","control",100
"550",2,2,6,1871,0,"md_as_14","reciprocity","control",160
"551",2,2,7,2435,1,"md_as_14","reciprocity","control",280
"552",2,2,8,1833,1,"md_as_14","reciprocity","control",320
"553",2,2,9,1162,1,"md_as_14","reciprocity","control",300
"554",2,2,10,746,1,"md_as_14","reciprocity","control",240
"555",2,2,11,1534,0,"md_as_14","reciprocity","control",40
"556",2,2,12,1302,1,"md_as_14","reciprocity","control",220
"557",2,2,13,1237,1,"md_as_14","reciprocity","control",340
"558",2,2,14,1212,1,"md_as_14","reciprocity","control",60
"559",2,2,15,1263,1,"md_as_14","reciprocity","control",360
"560",2,2,16,866,0,"md_as_14","reciprocity","control",160
"561",2,2,17,1837,1,"md_as_14","reciprocity","control",360
"562",2,2,18,1897,1,"md_as_14","reciprocity","control",360
"563",2,2,19,1221,0,"md_as_14","reciprocity","control",380
"564",2,2,20,1195,1,"md_as_14","reciprocity","control",380
"565",2,2,21,1921,0,"md_as_14","reciprocity","control",20
"566",2,2,22,1921,0,"md_as_14","reciprocity","control",60
"567",2,2,23,1844,0,"md_as_14","reciprocity","control",180
"568",2,2,24,2297,1,"md_as_14","reciprocity","control",360
"569",2,2,25,2284,0,"md_as_14","reciprocity","control",120
"570",2,2,26,2128,1,"md_as_14","reciprocity","control",340
"571",2,2,27,1949,0,"md_as_14","reciprocity","control",20
"572",2,2,28,2398,0,"md_as_14","reciprocity","control",100
"573",2,2,29,2142,0,"md_as_14","reciprocity","control",40
"574",2,2,30,1231,1,"md_as_14","reciprocity","control",380
"575",2,2,31,1079,1,"md_as_14","reciprocity","control",380
"576",2,2,32,1713,0,"md_as_14","reciprocity","control",300
"577",2,2,33,1118,1,"md_as_14","reciprocity","control",320
"578",2,2,34,1092,0,"md_as_14","reciprocity","control",240
"579",2,3,1,2212,0,"md_as_14","reciprocity","control",40
"580",2,3,2,1903,1,"md_as_14","reciprocity","control",300
"581",2,3,3,2176,1,"md_as_14","reciprocity","control",320
"582",2,3,4,1757,1,"md_as_14","reciprocity","control",360
"583",2,3,5,2085,1,"md_as_14","reciprocity","control",380
"584",2,3,6,2003,0,"md_as_14","reciprocity","control",220
"585",2,3,7,2658,0,"md_as_14","reciprocity","control",60
"586",2,3,8,2871,0,"md_as_14","reciprocity","control",100
"587",2,3,9,1053,1,"md_as_14","reciprocity","control",340
"588",2,3,10,1786,0,"md_as_14","reciprocity","control",20
"589",2,3,11,1847,1,"md_as_14","reciprocity","control",360
"590",2,3,12,2448,1,"md_as_14","reciprocity","control",240
"591",2,3,13,1138,0,"md_as_14","reciprocity","control",40
"592",2,3,14,1632,0,"md_as_14","reciprocity","control",280
"593",2,3,15,2253,0,"md_as_14","reciprocity","control",60
"594",2,3,16,2294,1,"md_as_14","reciprocity","control",220
"595",2,3,17,2212,0,"md_as_14","reciprocity","control",240
"596",2,3,18,1482,1,"md_as_14","reciprocity","control",120
"597",2,3,19,1046,0,"md_as_14","reciprocity","control",100
"598",2,3,20,1036,1,"md_as_14","reciprocity","control",280
"599",2,3,21,1583,0,"md_as_14","reciprocity","control",360
"600",2,3,22,1274,1,"md_as_14","reciprocity","control",160
"601",2,3,23,1287,0,"md_as_14","reciprocity","control",20
"602",2,3,24,1412,1,"md_as_14","reciprocity","control",340
"603",2,3,25,1902,0,"md_as_14","reciprocity","control",380
"604",2,3,26,1702,0,"md_as_14","reciprocity","control",120
"605",2,3,27,2049,1,"md_as_14","reciprocity","control",180
"606",2,3,28,1818,1,"md_as_14","reciprocity","control",300
"607",2,3,29,1463,0,"md_as_14","reciprocity","control",160
"608",2,3,30,1344,1,"md_as_14","reciprocity","control",360
"609",2,3,31,1342,1,"md_as_14","reciprocity","control",380
"610",2,3,32,1060,1,"md_as_14","reciprocity","control",380
"611",2,3,33,1820,1,"md_as_14","reciprocity","control",320
"612",2,3,34,792,0,"md_as_14","reciprocity","control",180
"613",3,1,1,1129,1,"md_as_15","reciprocity","decay",340
"614",3,1,2,1637,0,"md_as_15","reciprocity","decay",240
"615",3,1,3,1010,1,"md_as_15","reciprocity","decay",120
"616",3,1,4,871,1,"md_as_15","reciprocity","decay",280
"617",3,1,5,897,1,"md_as_15","reciprocity","decay",220
"618",3,1,6,959,1,"md_as_15","reciprocity","decay",300
"619",3,1,7,779,1,"md_as_15","reciprocity","decay",220
"620",3,1,8,1157,1,"md_as_15","reciprocity","decay",100
"621",3,1,9,827,0,"md_as_15","reciprocity","decay",60
"622",3,1,10,1177,0,"md_as_15","reciprocity","decay",120
"623",3,1,11,1390,1,"md_as_15","reciprocity","decay",360
"624",3,1,12,1176,1,"md_as_15","reciprocity","decay",360
"625",3,1,13,1869,0,"md_as_15","reciprocity","decay",160
"626",3,1,14,1717,1,"md_as_15","reciprocity","decay",280
"627",3,1,15,3009,0,"md_as_15","reciprocity","decay",380
"628",3,1,16,1512,1,"md_as_15","reciprocity","decay",20
"629",3,1,17,813,1,"md_as_15","reciprocity","decay",380
"630",3,1,18,577,1,"md_as_15","reciprocity","decay",100
"631",3,1,19,443,0,"md_as_15","reciprocity","decay",340
"632",3,1,20,1028,0,"md_as_15","reciprocity","decay",180
"633",3,1,21,1332,1,"md_as_15","reciprocity","decay",20
"634",3,1,22,966,1,"md_as_15","reciprocity","decay",180
"635",3,1,23,1997,1,"md_as_15","reciprocity","decay",40
"636",3,1,24,2709,1,"md_as_15","reciprocity","decay",40
"637",3,1,25,1141,1,"md_as_15","reciprocity","decay",240
"638",3,1,26,1350,1,"md_as_15","reciprocity","decay",60
"639",3,1,27,799,1,"md_as_15","reciprocity","decay",320
"640",3,1,28,834,1,"md_as_15","reciprocity","decay",160
"641",3,1,29,1172,1,"md_as_15","reciprocity","decay",320
"642",3,1,30,859,0,"md_as_15","reciprocity","decay",360
"643",3,1,31,922,0,"md_as_15","reciprocity","decay",360
"644",3,1,32,649,1,"md_as_15","reciprocity","decay",380
"645",3,1,33,767,1,"md_as_15","reciprocity","decay",300
"646",3,1,34,926,0,"md_as_15","reciprocity","decay",380
"647",3,2,1,1552,1,"md_as_15","reciprocity","decay",340
"648",3,2,2,1066,1,"md_as_15","reciprocity","decay",240
"649",3,2,3,391,0,"md_as_15","reciprocity","decay",120
"650",3,2,4,1092,1,"md_as_15","reciprocity","decay",280
"651",3,2,5,693,1,"md_as_15","reciprocity","decay",220
"652",3,2,6,916,1,"md_as_15","reciprocity","decay",300
"653",3,2,7,797,1,"md_as_15","reciprocity","decay",220
"654",3,2,8,547,1,"md_as_15","reciprocity","decay",100
"655",3,2,9,631,1,"md_as_15","reciprocity","decay",60
"656",3,2,10,818,1,"md_as_15","reciprocity","decay",120
"657",3,2,11,735,1,"md_as_15","reciprocity","decay",360
"658",3,2,12,614,1,"md_as_15","reciprocity","decay",360
"659",3,2,13,667,0,"md_as_15","reciprocity","decay",160
"660",3,2,14,761,1,"md_as_15","reciprocity","decay",280
"661",3,2,15,1045,1,"md_as_15","reciprocity","decay",380
"662",3,2,16,1578,0,"md_as_15","reciprocity","decay",20
"663",3,2,17,959,1,"md_as_15","reciprocity","decay",380
"664",3,2,18,1179,1,"md_as_15","reciprocity","decay",100
"665",3,2,19,822,1,"md_as_15","reciprocity","decay",340
"666",3,2,20,715,1,"md_as_15","reciprocity","decay",180
"667",3,2,21,774,1,"md_as_15","reciprocity","decay",20
"668",3,2,22,3052,0,"md_as_15","reciprocity","decay",180
"669",3,2,23,891,1,"md_as_15","reciprocity","decay",40
"670",3,2,24,932,1,"md_as_15","reciprocity","decay",40
"671",3,2,25,398,1,"md_as_15","reciprocity","decay",240
"672",3,2,26,398,1,"md_as_15","reciprocity","decay",60
"673",3,2,27,836,1,"md_as_15","reciprocity","decay",320
"674",3,2,28,660,0,"md_as_15","reciprocity","decay",160
"675",3,2,29,395,1,"md_as_15","reciprocity","decay",320
"676",3,2,30,670,0,"md_as_15","reciprocity","decay",360
"677",3,2,31,713,1,"md_as_15","reciprocity","decay",360
"678",3,2,32,907,1,"md_as_15","reciprocity","decay",380
"679",3,2,33,2252,0,"md_as_15","reciprocity","decay",300
"680",3,2,34,974,0,"md_as_15","reciprocity","decay",380
"681",3,3,1,925,1,"md_as_15","reciprocity","decay",280
"682",3,3,2,953,1,"md_as_15","reciprocity","decay",340
"683",3,3,3,993,1,"md_as_15","reciprocity","decay",360
"684",3,3,4,1062,1,"md_as_15","reciprocity","decay",360
"685",3,3,5,680,1,"md_as_15","reciprocity","decay",280
"686",3,3,6,840,1,"md_as_15","reciprocity","decay",360
"687",3,3,7,677,1,"md_as_15","reciprocity","decay",360
"688",3,3,8,770,1,"md_as_15","reciprocity","decay",380
"689",3,3,9,761,1,"md_as_15","reciprocity","decay",300
"690",3,3,10,683,1,"md_as_15","reciprocity","decay",380
"691",3,3,11,725,0,"md_as_15","reciprocity","decay",240
"692",3,3,12,647,1,"md_as_15","reciprocity","decay",320
"693",3,3,13,521,0,"md_as_15","reciprocity","decay",20
"694",3,3,14,724,1,"md_as_15","reciprocity","decay",180
"695",3,3,15,2148,0,"md_as_15","reciprocity","decay",160
"696",3,3,16,966,0,"md_as_15","reciprocity","decay",60
"697",3,3,17,840,0,"md_as_15","reciprocity","decay",120
"698",3,3,18,919,0,"md_as_15","reciprocity","decay",340
"699",3,3,19,716,1,"md_as_15","reciprocity","decay",380
"700",3,3,20,949,1,"md_as_15","reciprocity","decay",100
"701",3,3,21,711,0,"md_as_15","reciprocity","decay",120
"702",3,3,22,794,0,"md_as_15","reciprocity","decay",160
"703",3,3,23,697,0,"md_as_15","reciprocity","decay",220
"704",3,3,24,1081,1,"md_as_15","reciprocity","decay",20
"705",3,3,25,1028,0,"md_as_15","reciprocity","decay",40
"706",3,3,26,1771,1,"md_as_15","reciprocity","decay",220
"707",3,3,27,876,1,"md_as_15","reciprocity","decay",240
"708",3,3,28,1614,1,"md_as_15","reciprocity","decay",300
"709",3,3,29,1790,0,"md_as_15","reciprocity","decay",180
"710",3,3,30,568,1,"md_as_15","reciprocity","decay",60
"711",3,3,31,959,0,"md_as_15","reciprocity","decay",380
"712",3,3,32,344,0,"md_as_15","reciprocity","decay",40
"713",3,3,33,833,1,"md_as_15","reciprocity","decay",320
"714",3,3,34,717,1,"md_as_15","reciprocity","decay",100
"715",3,1,1,1424,1,"md_as_15","reciprocity","control",40
"716",3,1,2,828,1,"md_as_15","reciprocity","control",320
"717",3,1,3,787,1,"md_as_15","reciprocity","control",20
"718",3,1,4,703,1,"md_as_15","reciprocity","control",280
"719",3,1,5,643,1,"md_as_15","reciprocity","control",60
"720",3,1,6,788,1,"md_as_15","reciprocity","control",380
"721",3,1,7,642,0,"md_as_15","reciprocity","control",240
"722",3,1,8,744,1,"md_as_15","reciprocity","control",360
"723",3,1,9,369,1,"md_as_15","reciprocity","control",120
"724",3,1,10,920,1,"md_as_15","reciprocity","control",60
"725",3,1,11,844,1,"md_as_15","reciprocity","control",360
"726",3,1,12,809,0,"md_as_15","reciprocity","control",380
"727",3,1,13,823,1,"md_as_15","reciprocity","control",100
"728",3,1,14,712,1,"md_as_15","reciprocity","control",300
"729",3,1,15,771,1,"md_as_15","reciprocity","control",360
"730",3,1,16,783,1,"md_as_15","reciprocity","control",320
"731",3,1,17,362,0,"md_as_15","reciprocity","control",180
"732",3,1,18,465,0,"md_as_15","reciprocity","control",340
"733",3,1,19,552,1,"md_as_15","reciprocity","control",380
"734",3,1,20,1051,1,"md_as_15","reciprocity","control",40
"735",3,1,21,732,1,"md_as_15","reciprocity","control",240
"736",3,1,22,658,1,"md_as_15","reciprocity","control",220
"737",3,1,23,893,1,"md_as_15","reciprocity","control",160
"738",3,1,24,714,1,"md_as_15","reciprocity","control",280
"739",3,1,25,689,1,"md_as_15","reciprocity","control",220
"740",3,1,26,782,1,"md_as_15","reciprocity","control",300
"741",3,1,27,656,1,"md_as_15","reciprocity","control",180
"742",3,1,28,731,1,"md_as_15","reciprocity","control",360
"743",3,1,29,744,1,"md_as_15","reciprocity","control",160
"744",3,1,30,745,1,"md_as_15","reciprocity","control",340
"745",3,1,31,1070,1,"md_as_15","reciprocity","control",20
"746",3,1,32,750,1,"md_as_15","reciprocity","control",120
"747",3,1,33,1130,1,"md_as_15","reciprocity","control",100
"748",3,1,34,989,1,"md_as_15","reciprocity","control",380
"749",3,2,1,902,0,"md_as_15","reciprocity","control",40
"750",3,2,2,378,0,"md_as_15","reciprocity","control",320
"751",3,2,3,381,1,"md_as_15","reciprocity","control",20
"752",3,2,4,489,0,"md_as_15","reciprocity","control",280
"753",3,2,5,1177,1,"md_as_15","reciprocity","control",60
"754",3,2,6,759,1,"md_as_15","reciprocity","control",380
"755",3,2,7,1104,1,"md_as_15","reciprocity","control",240
"756",3,2,8,1147,1,"md_as_15","reciprocity","control",360
"757",3,2,9,1174,1,"md_as_15","reciprocity","control",120
"758",3,2,10,807,0,"md_as_15","reciprocity","control",60
"759",3,2,11,746,1,"md_as_15","reciprocity","control",360
"760",3,2,12,675,0,"md_as_15","reciprocity","control",380
"761",3,2,13,522,1,"md_as_15","reciprocity","control",100
"762",3,2,14,680,1,"md_as_15","reciprocity","control",300
"763",3,2,15,869,1,"md_as_15","reciprocity","control",360
"764",3,2,16,1348,1,"md_as_15","reciprocity","control",320
"765",3,2,17,1881,1,"md_as_15","reciprocity","control",180
"766",3,2,18,600,1,"md_as_15","reciprocity","control",340
"767",3,2,19,635,1,"md_as_15","reciprocity","control",380
"768",3,2,20,794,1,"md_as_15","reciprocity","control",40
"769",3,2,21,420,1,"md_as_15","reciprocity","control",240
"770",3,2,22,722,1,"md_as_15","reciprocity","control",220
"771",3,2,23,635,1,"md_as_15","reciprocity","control",160
"772",3,2,24,1150,1,"md_as_15","reciprocity","control",280
"773",3,2,25,576,1,"md_as_15","reciprocity","control",220
"774",3,2,26,681,1,"md_as_15","reciprocity","control",300
"775",3,2,27,738,1,"md_as_15","reciprocity","control",180
"776",3,2,28,902,1,"md_as_15","reciprocity","control",360
"777",3,2,29,746,1,"md_as_15","reciprocity","control",160
"778",3,2,30,1692,1,"md_as_15","reciprocity","control",340
"779",3,2,31,1177,1,"md_as_15","reciprocity","control",20
"780",3,2,32,1115,1,"md_as_15","reciprocity","control",120
"781",3,2,33,935,1,"md_as_15","reciprocity","control",100
"782",3,2,34,1029,1,"md_as_15","reciprocity","control",380
"783",3,3,1,658,1,"md_as_15","reciprocity","control",320
"784",3,3,2,947,1,"md_as_15","reciprocity","control",280
"785",3,3,3,537,1,"md_as_15","reciprocity","control",180
"786",3,3,4,1211,1,"md_as_15","reciprocity","control",360
"787",3,3,5,616,1,"md_as_15","reciprocity","control",340
"788",3,3,6,1273,1,"md_as_15","reciprocity","control",20
"789",3,3,7,512,0,"md_as_15","reciprocity","control",100
"790",3,3,8,863,1,"md_as_15","reciprocity","control",240
"791",3,3,9,1089,1,"md_as_15","reciprocity","control",60
"792",3,3,10,2527,0,"md_as_15","reciprocity","control",60
"793",3,3,11,1021,1,"md_as_15","reciprocity","control",20
"794",3,3,12,446,1,"md_as_15","reciprocity","control",320
"795",3,3,13,1171,1,"md_as_15","reciprocity","control",180
"796",3,3,14,576,1,"md_as_15","reciprocity","control",380
"797",3,3,15,441,0,"md_as_15","reciprocity","control",160
"798",3,3,16,887,0,"md_as_15","reciprocity","control",280
"799",3,3,17,434,1,"md_as_15","reciprocity","control",380
"800",3,3,18,1430,1,"md_as_15","reciprocity","control",120
"801",3,3,19,887,0,"md_as_15","reciprocity","control",40
"802",3,3,20,538,1,"md_as_15","reciprocity","control",380
"803",3,3,21,1631,1,"md_as_15","reciprocity","control",220
"804",3,3,22,1500,0,"md_as_15","reciprocity","control",340
"805",3,3,23,539,0,"md_as_15","reciprocity","control",120
"806",3,3,24,433,1,"md_as_15","reciprocity","control",220
"807",3,3,25,854,1,"md_as_15","reciprocity","control",40
"808",3,3,26,1333,1,"md_as_15","reciprocity","control",360
"809",3,3,27,1141,1,"md_as_15","reciprocity","control",300
"810",3,3,28,1574,0,"md_as_15","reciprocity","control",380
"811",3,3,29,727,1,"md_as_15","reciprocity","control",160
"812",3,3,30,865,1,"md_as_15","reciprocity","control",100
"813",3,3,31,871,1,"md_as_15","reciprocity","control",240
"814",3,3,32,573,1,"md_as_15","reciprocity","control",360
"815",3,3,33,1253,1,"md_as_15","reciprocity","control",300
"816",3,3,34,1186,1,"md_as_15","reciprocity","control",360
"817",4,1,1,1371,0,"md_as_16","reciprocity","control",280
"818",4,1,2,2239,1,"md_as_16","reciprocity","control",20
"819",4,1,3,1691,0,"md_as_16","reciprocity","control",240
"820",4,1,4,1769,0,"md_as_16","reciprocity","control",220
"821",4,1,5,2450,1,"md_as_16","reciprocity","control",120
"822",4,1,6,1875,0,"md_as_16","reciprocity","control",360
"823",4,1,7,2207,1,"md_as_16","reciprocity","control",340
"824",4,1,8,1292,0,"md_as_16","reciprocity","control",60
"825",4,1,9,985,0,"md_as_16","reciprocity","control",180
"826",4,1,10,1385,0,"md_as_16","reciprocity","control",100
"827",4,1,11,1074,0,"md_as_16","reciprocity","control",120
"828",4,1,12,1056,0,"md_as_16","reciprocity","control",300
"829",4,1,13,1277,0,"md_as_16","reciprocity","control",360
"830",4,1,14,1163,0,"md_as_16","reciprocity","control",40
"831",4,1,15,1496,0,"md_as_16","reciprocity","control",340
"832",4,1,16,2264,0,"md_as_16","reciprocity","control",40
"833",4,1,17,2675,1,"md_as_16","reciprocity","control",180
"834",4,1,18,2180,0,"md_as_16","reciprocity","control",380
"835",4,1,19,2451,1,"md_as_16","reciprocity","control",360
"836",4,1,20,1851,0,"md_as_16","reciprocity","control",60
"837",4,1,21,2817,1,"md_as_16","reciprocity","control",380
"838",4,1,22,1937,0,"md_as_16","reciprocity","control",320
"839",4,1,23,1783,0,"md_as_16","reciprocity","control",160
"840",4,1,24,3528,1,"md_as_16","reciprocity","control",320
"841",4,1,25,1815,0,"md_as_16","reciprocity","control",220
"842",4,1,26,1714,0,"md_as_16","reciprocity","control",100
"843",4,1,27,2569,0,"md_as_16","reciprocity","control",240
"844",4,1,28,1712,0,"md_as_16","reciprocity","control",380
"845",4,1,29,1367,0,"md_as_16","reciprocity","control",280
"846",4,1,30,1293,0,"md_as_16","reciprocity","control",300
"847",4,1,31,1222,0,"md_as_16","reciprocity","control",20
"848",4,1,32,2418,0,"md_as_16","reciprocity","control",160
"849",4,1,33,2257,0,"md_as_16","reciprocity","control",380
"850",4,1,34,3576,0,"md_as_16","reciprocity","control",360
"851",4,2,1,2725,0,"md_as_16","reciprocity","control",280
"852",4,2,2,1874,1,"md_as_16","reciprocity","control",20
"853",4,2,3,1878,0,"md_as_16","reciprocity","control",240
"854",4,2,4,1685,0,"md_as_16","reciprocity","control",220
"855",4,2,5,1583,0,"md_as_16","reciprocity","control",120
"856",4,2,6,1518,0,"md_as_16","reciprocity","control",360
"857",4,2,7,1979,0,"md_as_16","reciprocity","control",340
"858",4,2,8,2127,0,"md_as_16","reciprocity","control",60
"859",4,2,9,1461,0,"md_as_16","reciprocity","control",180
"860",4,2,10,1710,0,"md_as_16","reciprocity","control",100
"861",4,2,11,1299,0,"md_as_16","reciprocity","control",120
"862",4,2,12,1563,0,"md_as_16","reciprocity","control",300
"863",4,2,13,2194,0,"md_as_16","reciprocity","control",360
"864",4,2,14,1681,0,"md_as_16","reciprocity","control",40
"865",4,2,15,2285,1,"md_as_16","reciprocity","control",340
"866",4,2,16,1480,0,"md_as_16","reciprocity","control",40
"867",4,2,17,1676,0,"md_as_16","reciprocity","control",180
"868",4,2,18,2332,0,"md_as_16","reciprocity","control",380
"869",4,2,19,2113,1,"md_as_16","reciprocity","control",360
"870",4,2,20,1901,0,"md_as_16","reciprocity","control",60
"871",4,2,21,1744,0,"md_as_16","reciprocity","control",380
"872",4,2,22,2283,0,"md_as_16","reciprocity","control",320
"873",4,2,23,2186,1,"md_as_16","reciprocity","control",160
"874",4,2,24,1955,0,"md_as_16","reciprocity","control",320
"875",4,2,25,1627,0,"md_as_16","reciprocity","control",220
"876",4,2,26,1827,0,"md_as_16","reciprocity","control",100
"877",4,2,27,1923,0,"md_as_16","reciprocity","control",240
"878",4,2,28,1693,1,"md_as_16","reciprocity","control",380
"879",4,2,29,1904,0,"md_as_16","reciprocity","control",280
"880",4,2,30,1879,0,"md_as_16","reciprocity","control",300
"881",4,2,31,1218,0,"md_as_16","reciprocity","control",20
"882",4,2,32,1110,0,"md_as_16","reciprocity","control",160
"883",4,2,33,2082,1,"md_as_16","reciprocity","control",380
"884",4,2,34,1601,0,"md_as_16","reciprocity","control",360
"885",4,3,1,1751,0,"md_as_16","reciprocity","control",40
"886",4,3,2,1600,0,"md_as_16","reciprocity","control",380
"887",4,3,3,2138,0,"md_as_16","reciprocity","control",360
"888",4,3,4,2699,1,"md_as_16","reciprocity","control",340
"889",4,3,5,1863,0,"md_as_16","reciprocity","control",120
"890",4,3,6,1901,0,"md_as_16","reciprocity","control",280
"891",4,3,7,1732,0,"md_as_16","reciprocity","control",300
"892",4,3,8,1413,0,"md_as_16","reciprocity","control",100
"893",4,3,9,2092,1,"md_as_16","reciprocity","control",380
"894",4,3,10,1506,0,"md_as_16","reciprocity","control",160
"895",4,3,11,1920,1,"md_as_16","reciprocity","control",340
"896",4,3,12,1710,0,"md_as_16","reciprocity","control",360
"897",4,3,13,1436,0,"md_as_16","reciprocity","control",220
"898",4,3,14,2570,0,"md_as_16","reciprocity","control",60
"899",4,3,15,1703,1,"md_as_16","reciprocity","control",240
"900",4,3,16,1420,0,"md_as_16","reciprocity","control",100
"901",4,3,17,1750,0,"md_as_16","reciprocity","control",60
"902",4,3,18,2053,0,"md_as_16","reciprocity","control",180
"903",4,3,19,1999,0,"md_as_16","reciprocity","control",360
"904",4,3,20,1531,0,"md_as_16","reciprocity","control",280
"905",4,3,21,1670,0,"md_as_16","reciprocity","control",20
"906",4,3,22,3155,1,"md_as_16","reciprocity","control",300
"907",4,3,23,1377,0,"md_as_16","reciprocity","control",180
"908",4,3,24,1589,0,"md_as_16","reciprocity","control",40
"909",4,3,25,1387,0,"md_as_16","reciprocity","control",120
"910",4,3,26,2388,1,"md_as_16","reciprocity","control",380
"911",4,3,27,1539,0,"md_as_16","reciprocity","control",220
"912",4,3,28,2086,0,"md_as_16","reciprocity","control",360
"913",4,3,29,2255,0,"md_as_16","reciprocity","control",240
"914",4,3,30,2060,0,"md_as_16","reciprocity","control",380
"915",4,3,31,2435,0,"md_as_16","reciprocity","control",20
"916",4,3,32,2058,1,"md_as_16","reciprocity","control",320
"917",4,3,33,2180,0,"md_as_16","reciprocity","control",160
"918",4,3,34,1762,0,"md_as_16","reciprocity","control",320
"919",4,1,1,2127,1,"md_as_16","reciprocity","decay",380
"920",4,1,2,1890,0,"md_as_16","reciprocity","decay",120
"921",4,1,3,1209,1,"md_as_16","reciprocity","decay",360
"922",4,1,4,1620,0,"md_as_16","reciprocity","decay",120
"923",4,1,5,1636,0,"md_as_16","reciprocity","decay",180
"924",4,1,6,1374,0,"md_as_16","reciprocity","decay",360
"925",4,1,7,2158,1,"md_as_16","reciprocity","decay",380
"926",4,1,8,1494,0,"md_as_16","reciprocity","decay",280
"927",4,1,9,2244,0,"md_as_16","reciprocity","decay",180
"928",4,1,10,2478,1,"md_as_16","reciprocity","decay",300
"929",4,1,11,1585,0,"md_as_16","reciprocity","decay",360
"930",4,1,12,2030,0,"md_as_16","reciprocity","decay",240
"931",4,1,13,1156,0,"md_as_16","reciprocity","decay",60
"932",4,1,14,2126,0,"md_as_16","reciprocity","decay",100
"933",4,1,15,1670,0,"md_as_16","reciprocity","decay",160
"934",4,1,16,1372,0,"md_as_16","reciprocity","decay",20
"935",4,1,17,2204,1,"md_as_16","reciprocity","decay",280
"936",4,1,18,1988,0,"md_as_16","reciprocity","decay",100
"937",4,1,19,1240,0,"md_as_16","reciprocity","decay",40
"938",4,1,20,1316,0,"md_as_16","reciprocity","decay",40
"939",4,1,21,1843,1,"md_as_16","reciprocity","decay",320
"940",4,1,22,1508,0,"md_as_16","reciprocity","decay",220
"941",4,1,23,1396,0,"md_as_16","reciprocity","decay",240
"942",4,1,24,2291,0,"md_as_16","reciprocity","decay",360
"943",4,1,25,1546,1,"md_as_16","reciprocity","decay",340
"944",4,1,26,1544,0,"md_as_16","reciprocity","decay",160
"945",4,1,27,1584,0,"md_as_16","reciprocity","decay",340
"946",4,1,28,1562,1,"md_as_16","reciprocity","decay",300
"947",4,1,29,1663,0,"md_as_16","reciprocity","decay",220
"948",4,1,30,1428,0,"md_as_16","reciprocity","decay",320
"949",4,1,31,1526,1,"md_as_16","reciprocity","decay",380
"950",4,1,32,1490,0,"md_as_16","reciprocity","decay",380
"951",4,1,33,2134,0,"md_as_16","reciprocity","decay",20
"952",4,1,34,1266,0,"md_as_16","reciprocity","decay",60
"953",4,2,1,1533,1,"md_as_16","reciprocity","decay",380
"954",4,2,2,1590,0,"md_as_16","reciprocity","decay",120
"955",4,2,3,1356,1,"md_as_16","reciprocity","decay",360
"956",4,2,4,1363,0,"md_as_16","reciprocity","decay",120
"957",4,2,5,1231,0,"md_as_16","reciprocity","decay",180
"958",4,2,6,1226,1,"md_as_16","reciprocity","decay",360
"959",4,2,7,1908,1,"md_as_16","reciprocity","decay",380
"960",4,2,8,1936,0,"md_as_16","reciprocity","decay",280
"961",4,2,9,2093,0,"md_as_16","reciprocity","decay",180
"962",4,2,10,2109,1,"md_as_16","reciprocity","decay",300
"963",4,2,11,1405,0,"md_as_16","reciprocity","decay",360
"964",4,2,12,2657,0,"md_as_16","reciprocity","decay",240
"965",4,2,13,1983,1,"md_as_16","reciprocity","decay",60
"966",4,2,14,1538,0,"md_as_16","reciprocity","decay",100
"967",4,2,15,1497,0,"md_as_16","reciprocity","decay",160
"968",4,2,16,1453,0,"md_as_16","reciprocity","decay",20
"969",4,2,17,1814,0,"md_as_16","reciprocity","decay",280
"970",4,2,18,2362,0,"md_as_16","reciprocity","decay",100
"971",4,2,19,1496,0,"md_as_16","reciprocity","decay",40
"972",4,2,20,1305,0,"md_as_16","reciprocity","decay",40
"973",4,2,21,2252,1,"md_as_16","reciprocity","decay",320
"974",4,2,22,1684,0,"md_as_16","reciprocity","decay",220
"975",4,2,23,1326,0,"md_as_16","reciprocity","decay",240
"976",4,2,24,1900,1,"md_as_16","reciprocity","decay",360
"977",4,2,25,2111,1,"md_as_16","reciprocity","decay",340
"978",4,2,26,1886,0,"md_as_16","reciprocity","decay",160
"979",4,2,27,1506,0,"md_as_16","reciprocity","decay",340
"980",4,2,28,1749,1,"md_as_16","reciprocity","decay",300
"981",4,2,29,2273,0,"md_as_16","reciprocity","decay",220
"982",4,2,30,1752,0,"md_as_16","reciprocity","decay",320
"983",4,2,31,1933,1,"md_as_16","reciprocity","decay",380
"984",4,2,32,1332,0,"md_as_16","reciprocity","decay",380
"985",4,2,33,1565,0,"md_as_16","reciprocity","decay",20
"986",4,2,34,1413,0,"md_as_16","reciprocity","decay",60
"987",4,3,1,2089,1,"md_as_16","reciprocity","decay",360
"988",4,3,2,1747,0,"md_as_16","reciprocity","decay",220
"989",4,3,3,1500,0,"md_as_16","reciprocity","decay",60
"990",4,3,4,1373,0,"md_as_16","reciprocity","decay",120
"991",4,3,5,2099,0,"md_as_16","reciprocity","decay",240
"992",4,3,6,2481,0,"md_as_16","reciprocity","decay",380
"993",4,3,7,1695,0,"md_as_16","reciprocity","decay",100
"994",4,3,8,1916,1,"md_as_16","reciprocity","decay",360
"995",4,3,9,1545,0,"md_as_16","reciprocity","decay",300
"996",4,3,10,3460,0,"md_as_16","reciprocity","decay",180
"997",4,3,11,2304,1,"md_as_16","reciprocity","decay",380
"998",4,3,12,2204,1,"md_as_16","reciprocity","decay",220
"999",4,3,13,3143,1,"md_as_16","reciprocity","decay",320
"1000",4,3,14,968,0,"md_as_16","reciprocity","decay",40
"1001",4,3,15,1288,0,"md_as_16","reciprocity","decay",60
"1002",4,3,16,1473,0,"md_as_16","reciprocity","decay",20
"1003",4,3,17,1125,1,"md_as_16","reciprocity","decay",240
"1004",4,3,18,2002,1,"md_as_16","reciprocity","decay",340
"1005",4,3,19,1556,1,"md_as_16","reciprocity","decay",360
"1006",4,3,20,1736,0,"md_as_16","reciprocity","decay",300
"1007",4,3,21,1436,0,"md_as_16","reciprocity","decay",280
"1008",4,3,22,2928,1,"md_as_16","reciprocity","decay",20
"1009",4,3,23,1329,0,"md_as_16","reciprocity","decay",100
"1010",4,3,24,2482,0,"md_as_16","reciprocity","decay",360
"1011",4,3,25,1831,1,"md_as_16","reciprocity","decay",280
"1012",4,3,26,1705,0,"md_as_16","reciprocity","decay",120
"1013",4,3,27,1359,1,"md_as_16","reciprocity","decay",320
"1014",4,3,28,1849,0,"md_as_16","reciprocity","decay",40
"1015",4,3,29,2116,0,"md_as_16","reciprocity","decay",180
"1016",4,3,30,1401,1,"md_as_16","reciprocity","decay",380
"1017",4,3,31,1587,0,"md_as_16","reciprocity","decay",160
"1018",4,3,32,1968,0,"md_as_16","reciprocity","decay",160
"1019",4,3,33,2029,1,"md_as_16","reciprocity","decay",380
"1020",4,3,34,2406,0,"md_as_16","reciprocity","decay",340
"1021",5,1,1,2014,0,"md_as_17","reciprocity","control",360
"1022",5,1,2,1934,0,"md_as_17","reciprocity","control",160
"1023",5,1,3,2334,1,"md_as_17","reciprocity","control",180
"1024",5,1,4,3119,0,"md_as_17","reciprocity","control",380
"1025",5,1,5,1964,0,"md_as_17","reciprocity","control",360
"1026",5,1,6,2217,1,"md_as_17","reciprocity","control",320
"1027",5,1,7,2165,0,"md_as_17","reciprocity","control",340
"1028",5,1,8,2758,0,"md_as_17","reciprocity","control",60
"1029",5,1,9,2311,1,"md_as_17","reciprocity","control",340
"1030",5,1,10,2455,0,"md_as_17","reciprocity","control",380
"1031",5,1,11,1847,0,"md_as_17","reciprocity","control",360
"1032",5,1,12,2298,0,"md_as_17","reciprocity","control",20
"1033",5,1,13,3019,1,"md_as_17","reciprocity","control",120
"1034",5,1,14,2120,0,"md_as_17","reciprocity","control",300
"1035",5,1,15,1800,0,"md_as_17","reciprocity","control",220
"1036",5,1,16,2224,1,"md_as_17","reciprocity","control",240
"1037",5,1,17,1331,0,"md_as_17","reciprocity","control",240
"1038",5,1,18,1426,0,"md_as_17","reciprocity","control",320
"1039",5,1,19,2027,1,"md_as_17","reciprocity","control",20
"1040",5,1,20,2745,0,"md_as_17","reciprocity","control",380
"1041",5,1,21,1208,0,"md_as_17","reciprocity","control",100
"1042",5,1,22,1382,0,"md_as_17","reciprocity","control",160
"1043",5,1,23,1201,0,"md_as_17","reciprocity","control",100
"1044",5,1,24,2297,0,"md_as_17","reciprocity","control",380
"1045",5,1,25,1093,0,"md_as_17","reciprocity","control",40
"1046",5,1,26,1392,0,"md_as_17","reciprocity","control",180
"1047",5,1,27,1574,1,"md_as_17","reciprocity","control",360
"1048",5,1,28,1635,0,"md_as_17","reciprocity","control",40
"1049",5,1,29,2652,0,"md_as_17","reciprocity","control",60
"1050",5,1,30,1447,1,"md_as_17","reciprocity","control",280
"1051",5,1,31,2199,0,"md_as_17","reciprocity","control",120
"1052",5,1,32,1924,1,"md_as_17","reciprocity","control",280
"1053",5,1,33,1472,0,"md_as_17","reciprocity","control",300
"1054",5,1,34,886,0,"md_as_17","reciprocity","control",220
"1055",5,2,1,2723,0,"md_as_17","reciprocity","control",360
"1056",5,2,2,1239,0,"md_as_17","reciprocity","control",160
"1057",5,2,3,1234,1,"md_as_17","reciprocity","control",180
"1058",5,2,4,2221,1,"md_as_17","reciprocity","control",380
"1059",5,2,5,1042,0,"md_as_17","reciprocity","control",360
"1060",5,2,6,1041,1,"md_as_17","reciprocity","control",320
"1061",5,2,7,1932,1,"md_as_17","reciprocity","control",340
"1062",5,2,8,874,0,"md_as_17","reciprocity","control",60
"1063",5,2,9,933,0,"md_as_17","reciprocity","control",340
"1064",5,2,10,1314,0,"md_as_17","reciprocity","control",380
"1065",5,2,11,1273,0,"md_as_17","reciprocity","control",360
"1066",5,2,12,869,1,"md_as_17","reciprocity","control",20
"1067",5,2,13,2246,1,"md_as_17","reciprocity","control",120
"1068",5,2,14,1105,0,"md_as_17","reciprocity","control",300
"1069",5,2,15,1362,0,"md_as_17","reciprocity","control",220
"1070",5,2,16,1474,1,"md_as_17","reciprocity","control",240
"1071",5,2,17,1541,0,"md_as_17","reciprocity","control",240
"1072",5,2,18,1164,0,"md_as_17","reciprocity","control",320
"1073",5,2,19,916,0,"md_as_17","reciprocity","control",20
"1074",5,2,20,982,0,"md_as_17","reciprocity","control",380
"1075",5,2,21,1167,0,"md_as_17","reciprocity","control",100
"1076",5,2,22,1131,1,"md_as_17","reciprocity","control",160
"1077",5,2,23,1147,0,"md_as_17","reciprocity","control",100
"1078",5,2,24,1445,1,"md_as_17","reciprocity","control",380
"1079",5,2,25,1269,0,"md_as_17","reciprocity","control",40
"1080",5,2,26,891,0,"md_as_17","reciprocity","control",180
"1081",5,2,27,1078,0,"md_as_17","reciprocity","control",360
"1082",5,2,28,958,0,"md_as_17","reciprocity","control",40
"1083",5,2,29,1260,0,"md_as_17","reciprocity","control",60
"1084",5,2,30,1056,0,"md_as_17","reciprocity","control",280
"1085",5,2,31,1044,0,"md_as_17","reciprocity","control",120
"1086",5,2,32,1274,0,"md_as_17","reciprocity","control",280
"1087",5,2,33,977,0,"md_as_17","reciprocity","control",300
"1088",5,2,34,877,0,"md_as_17","reciprocity","control",220
"1089",5,3,1,984,0,"md_as_17","reciprocity","control",60
"1090",5,3,2,911,1,"md_as_17","reciprocity","control",300
"1091",5,3,3,1386,0,"md_as_17","reciprocity","control",380
"1092",5,3,4,1358,1,"md_as_17","reciprocity","control",280
"1093",5,3,5,692,0,"md_as_17","reciprocity","control",100
"1094",5,3,6,873,0,"md_as_17","reciprocity","control",380
"1095",5,3,7,776,1,"md_as_17","reciprocity","control",360
"1096",5,3,8,997,0,"md_as_17","reciprocity","control",380
"1097",5,3,9,710,0,"md_as_17","reciprocity","control",60
"1098",5,3,10,868,0,"md_as_17","reciprocity","control",240
"1099",5,3,11,656,0,"md_as_17","reciprocity","control",280
"1100",5,3,12,962,1,"md_as_17","reciprocity","control",340
"1101",5,3,13,1140,0,"md_as_17","reciprocity","control",220
"1102",5,3,14,1077,1,"md_as_17","reciprocity","control",300
"1103",5,3,15,672,0,"md_as_17","reciprocity","control",120
"1104",5,3,16,934,0,"md_as_17","reciprocity","control",20
"1105",5,3,17,735,1,"md_as_17","reciprocity","control",360
"1106",5,3,18,692,0,"md_as_17","reciprocity","control",320
"1107",5,3,19,780,0,"md_as_17","reciprocity","control",160
"1108",5,3,20,1094,1,"md_as_17","reciprocity","control",180
"1109",5,3,21,976,1,"md_as_17","reciprocity","control",40
"1110",5,3,22,777,0,"md_as_17","reciprocity","control",180
"1111",5,3,23,1143,1,"md_as_17","reciprocity","control",20
"1112",5,3,24,1201,1,"md_as_17","reciprocity","control",360
"1113",5,3,25,1782,1,"md_as_17","reciprocity","control",380
"1114",5,3,26,606,0,"md_as_17","reciprocity","control",220
"1115",5,3,27,762,1,"md_as_17","reciprocity","control",240
"1116",5,3,28,859,0,"md_as_17","reciprocity","control",160
"1117",5,3,29,798,0,"md_as_17","reciprocity","control",40
"1118",5,3,30,800,0,"md_as_17","reciprocity","control",340
"1119",5,3,31,1346,0,"md_as_17","reciprocity","control",120
"1120",5,3,32,1226,1,"md_as_17","reciprocity","control",100
"1121",5,3,34,909,1,"md_as_17","reciprocity","control",360
"1122",5,1,1,1356,0,"md_as_17","reciprocity","decay",100
"1123",5,1,2,918,1,"md_as_17","reciprocity","decay",380
"1124",5,1,3,849,1,"md_as_17","reciprocity","decay",160
"1125",5,1,4,841,1,"md_as_17","reciprocity","decay",20
"1126",5,1,5,782,1,"md_as_17","reciprocity","decay",120
"1127",5,1,6,926,1,"md_as_17","reciprocity","decay",300
"1128",5,1,7,817,1,"md_as_17","reciprocity","decay",380
"1129",5,1,8,996,0,"md_as_17","reciprocity","decay",100
"1130",5,1,9,831,1,"md_as_17","reciprocity","decay",220
"1131",5,1,10,782,1,"md_as_17","reciprocity","decay",240
"1132",5,1,11,1112,1,"md_as_17","reciprocity","decay",280
"1133",5,1,12,994,0,"md_as_17","reciprocity","decay",240
"1134",5,1,13,2145,0,"md_as_17","reciprocity","decay",320
"1135",5,1,14,1122,0,"md_as_17","reciprocity","decay",20
"1136",5,1,15,961,0,"md_as_17","reciprocity","decay",220
"1137",5,1,16,1021,0,"md_as_17","reciprocity","decay",40
"1138",5,1,17,759,0,"md_as_17","reciprocity","decay",380
"1139",5,1,18,674,1,"md_as_17","reciprocity","decay",300
"1140",5,1,19,729,1,"md_as_17","reciprocity","decay",360
"1141",5,1,20,773,0,"md_as_17","reciprocity","decay",340
"1142",5,1,21,841,0,"md_as_17","reciprocity","decay",360
"1143",5,1,22,1079,0,"md_as_17","reciprocity","decay",120
"1144",5,1,23,780,0,"md_as_17","reciprocity","decay",380
"1145",5,1,24,654,0,"md_as_17","reciprocity","decay",40
"1146",5,1,25,774,0,"md_as_17","reciprocity","decay",60
"1147",5,1,26,1003,0,"md_as_17","reciprocity","decay",360
"1148",5,1,27,816,0,"md_as_17","reciprocity","decay",60
"1149",5,1,28,710,1,"md_as_17","reciprocity","decay",160
"1150",5,1,29,830,0,"md_as_17","reciprocity","decay",340
"1151",5,1,30,828,0,"md_as_17","reciprocity","decay",180
"1152",5,1,31,1299,0,"md_as_17","reciprocity","decay",180
"1153",5,1,32,741,0,"md_as_17","reciprocity","decay",320
"1154",5,1,33,742,1,"md_as_17","reciprocity","decay",280
"1155",5,1,34,850,0,"md_as_17","reciprocity","decay",360
"1156",5,2,1,835,0,"md_as_17","reciprocity","decay",100
"1157",5,2,2,749,0,"md_as_17","reciprocity","decay",380
"1158",5,2,3,781,0,"md_as_17","reciprocity","decay",160
"1159",5,2,4,630,1,"md_as_17","reciprocity","decay",20
"1160",5,2,5,851,0,"md_as_17","reciprocity","decay",120
"1161",5,2,6,673,0,"md_as_17","reciprocity","decay",300
"1162",5,2,7,837,0,"md_as_17","reciprocity","decay",380
"1163",5,2,8,905,1,"md_as_17","reciprocity","decay",100
"1164",5,2,9,920,0,"md_as_17","reciprocity","decay",220
"1165",5,2,10,666,0,"md_as_17","reciprocity","decay",240
"1166",5,2,11,606,1,"md_as_17","reciprocity","decay",280
"1167",5,2,12,774,0,"md_as_17","reciprocity","decay",240
"1168",5,2,13,509,0,"md_as_17","reciprocity","decay",320
"1169",5,2,14,625,0,"md_as_17","reciprocity","decay",20
"1170",5,2,15,505,0,"md_as_17","reciprocity","decay",220
"1171",5,2,16,828,1,"md_as_17","reciprocity","decay",40
"1172",5,2,17,658,0,"md_as_17","reciprocity","decay",380
"1173",5,2,18,793,0,"md_as_17","reciprocity","decay",300
"1174",5,2,19,570,1,"md_as_17","reciprocity","decay",360
"1175",5,2,20,726,1,"md_as_17","reciprocity","decay",340
"1176",5,2,21,1333,1,"md_as_17","reciprocity","decay",360
"1177",5,2,22,877,0,"md_as_17","reciprocity","decay",120
"1178",5,2,23,549,0,"md_as_17","reciprocity","decay",380
"1179",5,2,24,541,0,"md_as_17","reciprocity","decay",40
"1180",5,2,25,892,0,"md_as_17","reciprocity","decay",60
"1181",5,2,26,793,1,"md_as_17","reciprocity","decay",360
"1182",5,2,27,635,1,"md_as_17","reciprocity","decay",60
"1183",5,2,28,763,1,"md_as_17","reciprocity","decay",160
"1184",5,2,29,887,1,"md_as_17","reciprocity","decay",340
"1185",5,2,30,1079,0,"md_as_17","reciprocity","decay",180
"1186",5,2,31,847,0,"md_as_17","reciprocity","decay",180
"1187",5,2,32,989,1,"md_as_17","reciprocity","decay",320
"1188",5,2,33,898,1,"md_as_17","reciprocity","decay",280
"1189",5,2,34,1547,1,"md_as_17","reciprocity","decay",360
"1190",5,3,1,668,0,"md_as_17","reciprocity","decay",60
"1191",5,3,2,897,0,"md_as_17","reciprocity","decay",380
"1192",5,3,3,607,0,"md_as_17","reciprocity","decay",160
"1193",5,3,4,948,0,"md_as_17","reciprocity","decay",320
"1194",5,3,5,588,0,"md_as_17","reciprocity","decay",120
"1195",5,3,6,812,0,"md_as_17","reciprocity","decay",100
"1196",5,3,7,804,0,"md_as_17","reciprocity","decay",100
"1197",5,3,8,639,0,"md_as_17","reciprocity","decay",40
"1198",5,3,9,834,1,"md_as_17","reciprocity","decay",180
"1199",5,3,10,752,1,"md_as_17","reciprocity","decay",380
"1200",5,3,11,432,0,"md_as_17","reciprocity","decay",300
"1201",5,3,12,708,0,"md_as_17","reciprocity","decay",360
"1202",5,3,13,532,0,"md_as_17","reciprocity","decay",160
"1203",5,3,14,464,0,"md_as_17","reciprocity","decay",320
"1204",5,3,15,1085,0,"md_as_17","reciprocity","decay",360
"1205",5,3,16,1127,0,"md_as_17","reciprocity","decay",380
"1206",5,3,17,641,0,"md_as_17","reciprocity","decay",280
"1207",5,3,18,537,0,"md_as_17","reciprocity","decay",220
"1208",5,3,19,808,0,"md_as_17","reciprocity","decay",20
"1209",5,3,20,736,0,"md_as_17","reciprocity","decay",240
"1210",5,3,21,662,1,"md_as_17","reciprocity","decay",180
"1211",5,3,22,569,1,"md_as_17","reciprocity","decay",360
"1212",5,3,23,537,0,"md_as_17","reciprocity","decay",20
"1213",5,3,24,707,0,"md_as_17","reciprocity","decay",340
"1214",5,3,25,551,0,"md_as_17","reciprocity","decay",40
"1215",5,3,26,619,0,"md_as_17","reciprocity","decay",220
"1216",5,3,27,632,1,"md_as_17","reciprocity","decay",240
"1217",5,3,28,582,0,"md_as_17","reciprocity","decay",280
"1218",5,3,29,556,1,"md_as_17","reciprocity","decay",360
"1219",5,3,30,531,1,"md_as_17","reciprocity","decay",300
"1220",5,3,31,557,0,"md_as_17","reciprocity","decay",380
"1221",5,3,32,569,1,"md_as_17","reciprocity","decay",120
"1222",5,3,33,599,0,"md_as_17","reciprocity","decay",340
"1223",5,3,34,540,1,"md_as_17","reciprocity","decay",60
"1224",6,1,1,3744,0,"md_as_19","reciprocity","decay",100
"1225",6,1,2,1929,1,"md_as_19","reciprocity","decay",320
"1226",6,1,3,3726,0,"md_as_19","reciprocity","decay",40
"1227",6,1,4,1369,1,"md_as_19","reciprocity","decay",380
"1228",6,1,5,1744,1,"md_as_19","reciprocity","decay",320
"1229",6,1,6,2259,1,"md_as_19","reciprocity","decay",300
"1230",6,1,7,3086,1,"md_as_19","reciprocity","decay",340
"1231",6,1,8,3961,0,"md_as_19","reciprocity","decay",20
"1232",6,1,9,2152,1,"md_as_19","reciprocity","decay",60
"1233",6,1,10,2097,1,"md_as_19","reciprocity","decay",100
"1234",6,1,11,1541,1,"md_as_19","reciprocity","decay",360
"1235",6,1,12,2274,0,"md_as_19","reciprocity","decay",380
"1236",6,1,13,1420,1,"md_as_19","reciprocity","decay",340
"1237",6,1,14,2624,1,"md_as_19","reciprocity","decay",360
"1238",6,1,15,1980,0,"md_as_19","reciprocity","decay",160
"1239",6,1,17,3412,1,"md_as_19","reciprocity","decay",360
"1240",6,1,18,2767,1,"md_as_19","reciprocity","decay",120
"1241",6,1,19,2298,1,"md_as_19","reciprocity","decay",240
"1242",6,1,20,1911,1,"md_as_19","reciprocity","decay",360
"1243",6,1,21,1733,1,"md_as_19","reciprocity","decay",280
"1244",6,1,22,2691,0,"md_as_19","reciprocity","decay",220
"1245",6,1,23,2249,1,"md_as_19","reciprocity","decay",60
"1246",6,1,24,1186,1,"md_as_19","reciprocity","decay",280
"1247",6,1,25,2564,0,"md_as_19","reciprocity","decay",20
"1248",6,1,26,3275,1,"md_as_19","reciprocity","decay",160
"1249",6,1,27,2305,1,"md_as_19","reciprocity","decay",380
"1250",6,1,28,2917,0,"md_as_19","reciprocity","decay",120
"1251",6,1,29,1274,1,"md_as_19","reciprocity","decay",220
"1252",6,1,30,1380,1,"md_as_19","reciprocity","decay",380
"1253",6,1,31,1336,1,"md_as_19","reciprocity","decay",240
"1254",6,1,32,1174,1,"md_as_19","reciprocity","decay",180
"1255",6,1,33,2231,1,"md_as_19","reciprocity","decay",300
"1256",6,1,34,2012,1,"md_as_19","reciprocity","decay",180
"1257",6,2,1,1544,1,"md_as_19","reciprocity","decay",100
"1258",6,2,2,1398,1,"md_as_19","reciprocity","decay",320
"1259",6,2,3,2076,0,"md_as_19","reciprocity","decay",40
"1260",6,2,4,1226,1,"md_as_19","reciprocity","decay",380
"1261",6,2,5,2055,1,"md_as_19","reciprocity","decay",320
"1262",6,2,6,1491,1,"md_as_19","reciprocity","decay",300
"1263",6,2,7,2666,1,"md_as_19","reciprocity","decay",340
"1264",6,2,8,1982,0,"md_as_19","reciprocity","decay",20
"1265",6,2,9,2398,0,"md_as_19","reciprocity","decay",60
"1266",6,2,10,1719,1,"md_as_19","reciprocity","decay",100
"1267",6,2,11,1938,1,"md_as_19","reciprocity","decay",360
"1268",6,2,12,1438,0,"md_as_19","reciprocity","decay",380
"1269",6,2,13,1859,1,"md_as_19","reciprocity","decay",340
"1270",6,2,14,1606,1,"md_as_19","reciprocity","decay",360
"1271",6,2,15,2078,0,"md_as_19","reciprocity","decay",160
"1272",6,2,16,1410,1,"md_as_19","reciprocity","decay",40
"1273",6,2,17,1969,1,"md_as_19","reciprocity","decay",360
"1274",6,2,18,2709,1,"md_as_19","reciprocity","decay",120
"1275",6,2,20,2205,1,"md_as_19","reciprocity","decay",360
"1276",6,2,21,1776,1,"md_as_19","reciprocity","decay",280
"1277",6,2,22,2959,1,"md_as_19","reciprocity","decay",220
"1278",6,2,23,1828,0,"md_as_19","reciprocity","decay",60
"1279",6,2,24,3063,0,"md_as_19","reciprocity","decay",280
"1280",6,2,25,2169,1,"md_as_19","reciprocity","decay",20
"1281",6,2,26,1556,1,"md_as_19","reciprocity","decay",160
"1282",6,2,27,973,1,"md_as_19","reciprocity","decay",380
"1283",6,2,28,2770,0,"md_as_19","reciprocity","decay",120
"1284",6,2,29,892,1,"md_as_19","reciprocity","decay",220
"1285",6,2,30,999,1,"md_as_19","reciprocity","decay",380
"1286",6,2,31,2380,1,"md_as_19","reciprocity","decay",240
"1287",6,2,32,2246,1,"md_as_19","reciprocity","decay",180
"1288",6,2,33,1160,1,"md_as_19","reciprocity","decay",300
"1289",6,2,34,1137,1,"md_as_19","reciprocity","decay",180
"1290",6,3,1,1874,0,"md_as_19","reciprocity","decay",360
"1291",6,3,2,3181,1,"md_as_19","reciprocity","decay",360
"1292",6,3,3,1925,0,"md_as_19","reciprocity","decay",160
"1293",6,3,4,1673,0,"md_as_19","reciprocity","decay",320
"1294",6,3,5,3686,1,"md_as_19","reciprocity","decay",180
"1295",6,3,6,1681,1,"md_as_19","reciprocity","decay",220
"1296",6,3,8,3110,1,"md_as_19","reciprocity","decay",240
"1297",6,3,9,2168,0,"md_as_19","reciprocity","decay",160
"1298",6,3,10,3814,0,"md_as_19","reciprocity","decay",100
"1299",6,3,11,731,1,"md_as_19","reciprocity","decay",280
"1300",6,3,12,1032,1,"md_as_19","reciprocity","decay",360
"1301",6,3,13,3692,0,"md_as_19","reciprocity","decay",340
"1302",6,3,14,1412,0,"md_as_19","reciprocity","decay",60
"1303",6,3,15,885,1,"md_as_19","reciprocity","decay",300
"1304",6,3,16,2410,0,"md_as_19","reciprocity","decay",120
"1305",6,3,17,994,1,"md_as_19","reciprocity","decay",320
"1306",6,3,18,1532,1,"md_as_19","reciprocity","decay",380
"1307",6,3,19,2586,0,"md_as_19","reciprocity","decay",380
"1308",6,3,20,1335,1,"md_as_19","reciprocity","decay",300
"1309",6,3,21,3025,1,"md_as_19","reciprocity","decay",180
"1310",6,3,22,1116,0,"md_as_19","reciprocity","decay",40
"1311",6,3,23,1422,1,"md_as_19","reciprocity","decay",360
"1312",6,3,24,1801,0,"md_as_19","reciprocity","decay",20
"1313",6,3,25,2319,0,"md_as_19","reciprocity","decay",20
"1314",6,3,26,3515,1,"md_as_19","reciprocity","decay",120
"1315",6,3,27,1630,0,"md_as_19","reciprocity","decay",40
"1316",6,3,28,1571,1,"md_as_19","reciprocity","decay",340
"1317",6,3,29,981,1,"md_as_19","reciprocity","decay",220
"1318",6,3,30,1055,1,"md_as_19","reciprocity","decay",380
"1319",6,3,31,1267,0,"md_as_19","reciprocity","decay",60
"1320",6,3,32,936,1,"md_as_19","reciprocity","decay",380
"1321",6,3,33,3139,1,"md_as_19","reciprocity","decay",280
"1322",6,3,34,1254,0,"md_as_19","reciprocity","decay",240
"1323",6,1,1,3315,1,"md_as_19","reciprocity","control",20
"1324",6,1,2,2126,1,"md_as_19","reciprocity","control",40
"1325",6,1,3,2438,1,"md_as_19","reciprocity","control",120
"1326",6,1,4,2083,1,"md_as_19","reciprocity","control",340
"1327",6,1,5,1854,1,"md_as_19","reciprocity","control",180
"1328",6,1,6,2740,1,"md_as_19","reciprocity","control",120
"1329",6,1,7,2444,0,"md_as_19","reciprocity","control",20
"1330",6,1,8,1392,1,"md_as_19","reciprocity","control",360
"1331",6,1,9,977,1,"md_as_19","reciprocity","control",380
"1332",6,1,10,889,1,"md_as_19","reciprocity","control",160
"1333",6,1,11,1654,0,"md_as_19","reciprocity","control",60
"1334",6,1,12,1356,1,"md_as_19","reciprocity","control",100
"1335",6,1,13,808,1,"md_as_19","reciprocity","control",340
"1336",6,1,14,1143,1,"md_as_19","reciprocity","control",280
"1337",6,1,15,1265,1,"md_as_19","reciprocity","control",280
"1338",6,1,16,1349,1,"md_as_19","reciprocity","control",360
"1339",6,1,17,1352,1,"md_as_19","reciprocity","control",100
"1340",6,1,18,1784,0,"md_as_19","reciprocity","control",60
"1341",6,1,19,1053,1,"md_as_19","reciprocity","control",300
"1342",6,1,20,1409,1,"md_as_19","reciprocity","control",300
"1343",6,1,21,872,1,"md_as_19","reciprocity","control",320
"1344",6,1,22,1522,1,"md_as_19","reciprocity","control",220
"1345",6,1,23,1773,1,"md_as_19","reciprocity","control",360
"1346",6,1,24,1703,1,"md_as_19","reciprocity","control",360
"1347",6,1,25,1988,0,"md_as_19","reciprocity","control",40
"1348",6,1,26,2271,1,"md_as_19","reciprocity","control",160
"1349",6,1,27,1611,1,"md_as_19","reciprocity","control",180
"1350",6,1,28,1478,0,"md_as_19","reciprocity","control",380
"1351",6,1,29,1665,1,"md_as_19","reciprocity","control",380
"1352",6,1,30,979,1,"md_as_19","reciprocity","control",240
"1353",6,1,31,1573,1,"md_as_19","reciprocity","control",320
"1354",6,1,32,3554,0,"md_as_19","reciprocity","control",220
"1355",6,1,33,924,1,"md_as_19","reciprocity","control",240
"1356",6,1,34,934,1,"md_as_19","reciprocity","control",380
"1357",6,2,1,2627,0,"md_as_19","reciprocity","control",20
"1358",6,2,2,1277,1,"md_as_19","reciprocity","control",40
"1359",6,2,3,1150,1,"md_as_19","reciprocity","control",120
"1360",6,2,4,1370,1,"md_as_19","reciprocity","control",340
"1361",6,2,5,1040,1,"md_as_19","reciprocity","control",180
"1362",6,2,6,2870,1,"md_as_19","reciprocity","control",120
"1363",6,2,7,1933,0,"md_as_19","reciprocity","control",20
"1364",6,2,8,1148,1,"md_as_19","reciprocity","control",360
"1365",6,2,9,688,1,"md_as_19","reciprocity","control",380
"1366",6,2,10,1680,1,"md_as_19","reciprocity","control",160
"1367",6,2,11,1506,0,"md_as_19","reciprocity","control",60
"1368",6,2,12,1183,1,"md_as_19","reciprocity","control",100
"1369",6,2,13,795,1,"md_as_19","reciprocity","control",340
"1370",6,2,14,637,1,"md_as_19","reciprocity","control",280
"1371",6,2,15,1052,1,"md_as_19","reciprocity","control",280
"1372",6,2,16,781,1,"md_as_19","reciprocity","control",360
"1373",6,2,17,788,1,"md_as_19","reciprocity","control",100
"1374",6,2,18,1221,1,"md_as_19","reciprocity","control",60
"1375",6,2,19,1740,1,"md_as_19","reciprocity","control",300
"1376",6,2,20,805,1,"md_as_19","reciprocity","control",300
"1377",6,2,21,1337,1,"md_as_19","reciprocity","control",320
"1378",6,2,22,1731,1,"md_as_19","reciprocity","control",220
"1379",6,2,23,1016,1,"md_as_19","reciprocity","control",360
"1380",6,2,24,1366,1,"md_as_19","reciprocity","control",360
"1381",6,2,25,1979,0,"md_as_19","reciprocity","control",40
"1382",6,2,26,2626,1,"md_as_19","reciprocity","control",160
"1383",6,2,27,901,1,"md_as_19","reciprocity","control",180
"1384",6,2,28,940,0,"md_as_19","reciprocity","control",380
"1385",6,2,29,2126,1,"md_as_19","reciprocity","control",380
"1386",6,2,30,1411,1,"md_as_19","reciprocity","control",240
"1387",6,2,31,1544,1,"md_as_19","reciprocity","control",320
"1388",6,2,32,969,1,"md_as_19","reciprocity","control",220
"1389",6,2,33,1737,1,"md_as_19","reciprocity","control",240
"1390",6,2,34,1839,1,"md_as_19","reciprocity","control",380
"1391",6,3,1,1288,1,"md_as_19","reciprocity","control",360
"1392",6,3,2,698,0,"md_as_19","reciprocity","control",380
"1393",6,3,3,937,1,"md_as_19","reciprocity","control",220
"1394",6,3,4,2454,0,"md_as_19","reciprocity","control",100
"1395",6,3,5,799,1,"md_as_19","reciprocity","control",380
"1396",6,3,6,1833,1,"md_as_19","reciprocity","control",120
"1397",6,3,7,1196,1,"md_as_19","reciprocity","control",240
"1398",6,3,8,822,1,"md_as_19","reciprocity","control",160
"1399",6,3,9,784,1,"md_as_19","reciprocity","control",180
"1400",6,3,10,699,1,"md_as_19","reciprocity","control",240
"1401",6,3,11,1312,0,"md_as_19","reciprocity","control",20
"1402",6,3,12,3154,0,"md_as_19","reciprocity","control",40
"1403",6,3,13,1153,1,"md_as_19","reciprocity","control",360
"1404",6,3,14,1361,1,"md_as_19","reciprocity","control",380
"1405",6,3,15,1681,0,"md_as_19","reciprocity","control",40
"1406",6,3,16,1914,1,"md_as_19","reciprocity","control",380
"1407",6,3,17,1561,1,"md_as_19","reciprocity","control",180
"1408",6,3,18,1173,1,"md_as_19","reciprocity","control",100
"1409",6,3,19,1321,1,"md_as_19","reciprocity","control",360
"1410",6,3,20,1713,1,"md_as_19","reciprocity","control",280
"1411",6,3,21,998,1,"md_as_19","reciprocity","control",280
"1412",6,3,22,1337,1,"md_as_19","reciprocity","control",360
"1413",6,3,23,638,1,"md_as_19","reciprocity","control",300
"1414",6,3,24,622,1,"md_as_19","reciprocity","control",320
"1415",6,3,25,1422,1,"md_as_19","reciprocity","control",340
"1416",6,3,26,2006,0,"md_as_19","reciprocity","control",20
"1417",6,3,27,1454,1,"md_as_19","reciprocity","control",340
"1418",6,3,28,1166,1,"md_as_19","reciprocity","control",320
"1419",6,3,29,2140,1,"md_as_19","reciprocity","control",220
"1420",6,3,30,2701,0,"md_as_19","reciprocity","control",60
"1421",6,3,31,2109,1,"md_as_19","reciprocity","control",60
"1422",6,3,32,925,1,"md_as_19","reciprocity","control",300
"1423",6,3,33,2157,1,"md_as_19","reciprocity","control",120
"1424",6,3,34,2229,1,"md_as_19","reciprocity","control",160
"1425",7,1,1,1000,1,"md_as_21","reciprocity","decay",300
"1426",7,1,2,915,0,"md_as_21","reciprocity","decay",280
"1427",7,1,3,1602,0,"md_as_21","reciprocity","decay",100
"1428",7,1,4,941,1,"md_as_21","reciprocity","decay",40
"1429",7,1,5,1632,0,"md_as_21","reciprocity","decay",100
"1430",7,1,6,768,1,"md_as_21","reciprocity","decay",340
"1431",7,1,7,1926,1,"md_as_21","reciprocity","decay",360
"1432",7,1,8,829,1,"md_as_21","reciprocity","decay",360
"1433",7,1,9,1149,0,"md_as_21","reciprocity","decay",300
"1434",7,1,10,799,1,"md_as_21","reciprocity","decay",240
"1435",7,1,11,805,1,"md_as_21","reciprocity","decay",360
"1436",7,1,12,860,0,"md_as_21","reciprocity","decay",340
"1437",7,1,13,1061,1,"md_as_21","reciprocity","decay",120
"1438",7,1,14,785,1,"md_as_21","reciprocity","decay",380
"1439",7,1,15,1016,1,"md_as_21","reciprocity","decay",380
"1440",7,1,16,1258,0,"md_as_21","reciprocity","decay",60
"1441",7,1,17,1183,1,"md_as_21","reciprocity","decay",180
"1442",7,1,18,1834,0,"md_as_21","reciprocity","decay",220
"1443",7,1,19,1825,0,"md_as_21","reciprocity","decay",20
"1444",7,1,20,1375,1,"md_as_21","reciprocity","decay",120
"1445",7,1,21,1144,1,"md_as_21","reciprocity","decay",380
"1446",7,1,22,1333,0,"md_as_21","reciprocity","decay",220
"1447",7,1,23,1160,1,"md_as_21","reciprocity","decay",280
"1448",7,1,24,1146,0,"md_as_21","reciprocity","decay",20
"1449",7,1,25,1142,0,"md_as_21","reciprocity","decay",380
"1450",7,1,26,891,0,"md_as_21","reciprocity","decay",320
"1451",7,1,27,1449,0,"md_as_21","reciprocity","decay",320
"1452",7,1,28,1191,1,"md_as_21","reciprocity","decay",160
"1453",7,1,29,2005,1,"md_as_21","reciprocity","decay",160
"1454",7,1,30,737,0,"md_as_21","reciprocity","decay",240
"1455",7,1,31,1229,1,"md_as_21","reciprocity","decay",180
"1456",7,1,32,1482,1,"md_as_21","reciprocity","decay",40
"1457",7,1,33,713,0,"md_as_21","reciprocity","decay",60
"1458",7,1,34,1042,0,"md_as_21","reciprocity","decay",360
"1459",7,2,1,1861,1,"md_as_21","reciprocity","decay",300
"1460",7,2,2,849,0,"md_as_21","reciprocity","decay",280
"1461",7,2,3,2048,1,"md_as_21","reciprocity","decay",100
"1462",7,2,4,879,0,"md_as_21","reciprocity","decay",40
"1463",7,2,5,716,0,"md_as_21","reciprocity","decay",100
"1464",7,2,6,747,1,"md_as_21","reciprocity","decay",340
"1465",7,2,7,1783,1,"md_as_21","reciprocity","decay",360
"1466",7,2,8,1413,1,"md_as_21","reciprocity","decay",360
"1467",7,2,9,1242,1,"md_as_21","reciprocity","decay",300
"1468",7,2,10,1144,1,"md_as_21","reciprocity","decay",240
"1469",7,2,11,755,1,"md_as_21","reciprocity","decay",360
"1470",7,2,12,698,0,"md_as_21","reciprocity","decay",340
"1471",7,2,13,1221,0,"md_as_21","reciprocity","decay",120
"1472",7,2,14,940,1,"md_as_21","reciprocity","decay",380
"1473",7,2,15,995,1,"md_as_21","reciprocity","decay",380
"1474",7,2,16,1259,0,"md_as_21","reciprocity","decay",60
"1475",7,2,17,1417,1,"md_as_21","reciprocity","decay",180
"1476",7,2,18,846,0,"md_as_21","reciprocity","decay",220
"1477",7,2,19,600,0,"md_as_21","reciprocity","decay",20
"1478",7,2,20,1273,0,"md_as_21","reciprocity","decay",120
"1479",7,2,21,1232,1,"md_as_21","reciprocity","decay",380
"1480",7,2,22,909,0,"md_as_21","reciprocity","decay",220
"1481",7,2,23,1202,1,"md_as_21","reciprocity","decay",280
"1482",7,2,24,1507,1,"md_as_21","reciprocity","decay",20
"1483",7,2,25,1702,0,"md_as_21","reciprocity","decay",380
"1484",7,2,26,1285,1,"md_as_21","reciprocity","decay",320
"1485",7,2,27,1024,1,"md_as_21","reciprocity","decay",320
"1486",7,2,28,1713,0,"md_as_21","reciprocity","decay",160
"1487",7,2,29,643,0,"md_as_21","reciprocity","decay",160
"1488",7,2,30,900,1,"md_as_21","reciprocity","decay",240
"1489",7,2,31,976,1,"md_as_21","reciprocity","decay",180
"1490",7,2,32,1113,1,"md_as_21","reciprocity","decay",40
"1491",7,2,33,970,1,"md_as_21","reciprocity","decay",60
"1492",7,2,34,823,0,"md_as_21","reciprocity","decay",360
"1493",7,3,1,2492,0,"md_as_21","reciprocity","decay",380
"1494",7,3,2,687,0,"md_as_21","reciprocity","decay",220
"1495",7,3,3,661,0,"md_as_21","reciprocity","decay",180
"1496",7,3,4,511,0,"md_as_21","reciprocity","decay",280
"1497",7,3,5,1326,0,"md_as_21","reciprocity","decay",20
"1498",7,3,6,1576,1,"md_as_21","reciprocity","decay",300
"1499",7,3,7,1398,0,"md_as_21","reciprocity","decay",60
"1500",7,3,8,862,0,"md_as_21","reciprocity","decay",360
"1501",7,3,9,933,0,"md_as_21","reciprocity","decay",160
"1502",7,3,10,709,0,"md_as_21","reciprocity","decay",220
"1503",7,3,11,704,0,"md_as_21","reciprocity","decay",40
"1504",7,3,12,875,1,"md_as_21","reciprocity","decay",380
"1505",7,3,13,823,0,"md_as_21","reciprocity","decay",160
"1506",7,3,14,963,0,"md_as_21","reciprocity","decay",240
"1507",7,3,15,981,0,"md_as_21","reciprocity","decay",20
"1508",7,3,16,625,0,"md_as_21","reciprocity","decay",100
"1509",7,3,17,902,0,"md_as_21","reciprocity","decay",340
"1510",7,3,18,1117,0,"md_as_21","reciprocity","decay",380
"1511",7,3,19,797,0,"md_as_21","reciprocity","decay",120
"1512",7,3,20,636,0,"md_as_21","reciprocity","decay",340
"1513",7,3,21,979,1,"md_as_21","reciprocity","decay",380
"1514",7,3,22,893,0,"md_as_21","reciprocity","decay",60
"1515",7,3,23,1333,1,"md_as_21","reciprocity","decay",300
"1516",7,3,24,696,0,"md_as_21","reciprocity","decay",120
"1517",7,3,25,732,0,"md_as_21","reciprocity","decay",240
"1518",7,3,26,786,0,"md_as_21","reciprocity","decay",320
"1519",7,3,27,702,0,"md_as_21","reciprocity","decay",280
"1520",7,3,28,555,0,"md_as_21","reciprocity","decay",360
"1521",7,3,29,732,0,"md_as_21","reciprocity","decay",40
"1522",7,3,30,1389,1,"md_as_21","reciprocity","decay",360
"1523",7,3,31,948,0,"md_as_21","reciprocity","decay",360
"1524",7,3,32,878,0,"md_as_21","reciprocity","decay",100
"1525",7,3,33,671,0,"md_as_21","reciprocity","decay",320
"1526",7,3,34,679,0,"md_as_21","reciprocity","decay",180
"1527",7,1,1,1116,1,"md_as_21","reciprocity","control",360
"1528",7,1,2,980,1,"md_as_21","reciprocity","control",340
"1529",7,1,3,793,1,"md_as_21","reciprocity","control",380
"1530",7,1,4,691,1,"md_as_21","reciprocity","control",280
"1531",7,1,5,669,0,"md_as_21","reciprocity","control",380
"1532",7,1,6,1520,0,"md_as_21","reciprocity","control",40
"1533",7,1,7,933,0,"md_as_21","reciprocity","control",60
"1534",7,1,8,802,0,"md_as_21","reciprocity","control",220
"1535",7,1,9,793,0,"md_as_21","reciprocity","control",20
"1536",7,1,10,694,0,"md_as_21","reciprocity","control",160
"1537",7,1,11,1904,0,"md_as_21","reciprocity","control",240
"1538",7,1,12,1239,1,"md_as_21","reciprocity","control",380
"1539",7,1,13,1085,0,"md_as_21","reciprocity","control",320
"1540",7,1,14,1091,1,"md_as_21","reciprocity","control",240
"1541",7,1,15,961,1,"md_as_21","reciprocity","control",300
"1542",7,1,16,1409,0,"md_as_21","reciprocity","control",20
"1543",7,1,17,1570,0,"md_as_21","reciprocity","control",60
"1544",7,1,18,1015,0,"md_as_21","reciprocity","control",100
"1545",7,1,19,1049,0,"md_as_21","reciprocity","control",320
"1546",7,1,20,1201,1,"md_as_21","reciprocity","control",280
"1547",7,1,21,1043,1,"md_as_21","reciprocity","control",360
"1548",7,1,22,1670,0,"md_as_21","reciprocity","control",360
"1549",7,1,23,1147,0,"md_as_21","reciprocity","control",160
"1550",7,1,24,819,0,"md_as_21","reciprocity","control",120
"1551",7,1,25,850,0,"md_as_21","reciprocity","control",180
"1552",7,1,26,634,0,"md_as_21","reciprocity","control",120
"1553",7,1,27,1070,0,"md_as_21","reciprocity","control",300
"1554",7,1,28,1178,1,"md_as_21","reciprocity","control",380
"1555",7,1,29,1015,0,"md_as_21","reciprocity","control",220
"1556",7,1,30,776,0,"md_as_21","reciprocity","control",360
"1557",7,1,31,706,0,"md_as_21","reciprocity","control",100
"1558",7,1,32,686,0,"md_as_21","reciprocity","control",180
"1559",7,1,33,786,1,"md_as_21","reciprocity","control",340
"1560",7,1,34,697,0,"md_as_21","reciprocity","control",40
"1561",7,2,1,1234,1,"md_as_21","reciprocity","control",360
"1562",7,2,2,1257,1,"md_as_21","reciprocity","control",340
"1563",7,2,3,974,1,"md_as_21","reciprocity","control",380
"1564",7,2,4,816,1,"md_as_21","reciprocity","control",280
"1565",7,2,5,854,0,"md_as_21","reciprocity","control",380
"1566",7,2,6,940,0,"md_as_21","reciprocity","control",40
"1567",7,2,7,1019,0,"md_as_21","reciprocity","control",60
"1568",7,2,8,842,0,"md_as_21","reciprocity","control",220
"1569",7,2,9,505,0,"md_as_21","reciprocity","control",20
"1570",7,2,10,867,0,"md_as_21","reciprocity","control",160
"1571",7,2,11,745,1,"md_as_21","reciprocity","control",240
"1572",7,2,12,1232,1,"md_as_21","reciprocity","control",380
"1573",7,2,13,1012,0,"md_as_21","reciprocity","control",320
"1574",7,2,14,699,0,"md_as_21","reciprocity","control",240
"1575",7,2,15,1078,1,"md_as_21","reciprocity","control",300
"1576",7,2,16,1091,0,"md_as_21","reciprocity","control",20
"1577",7,2,17,661,0,"md_as_21","reciprocity","control",60
"1578",7,2,18,1061,0,"md_as_21","reciprocity","control",100
"1579",7,2,19,848,0,"md_as_21","reciprocity","control",320
"1580",7,2,20,809,0,"md_as_21","reciprocity","control",280
"1581",7,2,21,775,0,"md_as_21","reciprocity","control",360
"1582",7,2,22,708,0,"md_as_21","reciprocity","control",360
"1583",7,2,23,753,0,"md_as_21","reciprocity","control",160
"1584",7,2,24,1017,1,"md_as_21","reciprocity","control",120
"1585",7,2,25,629,0,"md_as_21","reciprocity","control",180
"1586",7,2,26,737,0,"md_as_21","reciprocity","control",120
"1587",7,2,27,706,0,"md_as_21","reciprocity","control",300
"1588",7,2,28,1306,1,"md_as_21","reciprocity","control",380
"1589",7,2,29,1042,0,"md_as_21","reciprocity","control",220
"1590",7,2,30,727,0,"md_as_21","reciprocity","control",360
"1591",7,2,31,893,0,"md_as_21","reciprocity","control",100
"1592",7,2,32,939,0,"md_as_21","reciprocity","control",180
"1593",7,2,33,514,0,"md_as_21","reciprocity","control",340
"1594",7,2,34,677,0,"md_as_21","reciprocity","control",40
"1595",7,3,1,1577,0,"md_as_21","reciprocity","control",380
"1596",7,3,2,1070,0,"md_as_21","reciprocity","control",240
"1597",7,3,3,940,0,"md_as_21","reciprocity","control",120
"1598",7,3,4,802,0,"md_as_21","reciprocity","control",100
"1599",7,3,5,725,0,"md_as_21","reciprocity","control",20
"1600",7,3,6,667,0,"md_as_21","reciprocity","control",180
"1601",7,3,7,573,0,"md_as_21","reciprocity","control",160
"1602",7,3,8,613,0,"md_as_21","reciprocity","control",180
"1603",7,3,9,667,0,"md_as_21","reciprocity","control",320
"1604",7,3,10,733,0,"md_as_21","reciprocity","control",280
"1605",7,3,11,473,0,"md_as_21","reciprocity","control",220
"1606",7,3,12,764,0,"md_as_21","reciprocity","control",320
"1607",7,3,13,956,1,"md_as_21","reciprocity","control",340
"1608",7,3,14,787,0,"md_as_21","reciprocity","control",40
"1609",7,3,15,799,0,"md_as_21","reciprocity","control",120
"1610",7,3,16,595,0,"md_as_21","reciprocity","control",40
"1611",7,3,17,632,0,"md_as_21","reciprocity","control",340
"1612",7,3,18,637,0,"md_as_21","reciprocity","control",360
"1613",7,3,19,852,0,"md_as_21","reciprocity","control",280
"1614",7,3,20,610,0,"md_as_21","reciprocity","control",60
"1615",7,3,21,626,0,"md_as_21","reciprocity","control",300
"1616",7,3,22,675,0,"md_as_21","reciprocity","control",160
"1617",7,3,23,649,0,"md_as_21","reciprocity","control",300
"1618",7,3,24,655,0,"md_as_21","reciprocity","control",360
"1619",7,3,25,917,1,"md_as_21","reciprocity","control",380
"1620",7,3,26,573,0,"md_as_21","reciprocity","control",240
"1621",7,3,27,625,0,"md_as_21","reciprocity","control",380
"1622",7,3,28,607,0,"md_as_21","reciprocity","control",220
"1623",7,3,29,723,0,"md_as_21","reciprocity","control",360
"1624",7,3,30,564,0,"md_as_21","reciprocity","control",100
"1625",7,3,31,688,0,"md_as_21","reciprocity","control",360
"1626",7,3,32,674,0,"md_as_21","reciprocity","control",380
"1627",7,3,33,512,0,"md_as_21","reciprocity","control",60
"1628",7,3,34,562,0,"md_as_21","reciprocity","control",20
"1629",8,1,1,1540,1,"md_as_22","reciprocity","decay",360
"1630",8,1,2,1242,0,"md_as_22","reciprocity","decay",20
"1631",8,1,3,1384,0,"md_as_22","reciprocity","decay",100
"1632",8,1,4,1967,0,"md_as_22","reciprocity","decay",40
"1633",8,1,5,2096,1,"md_as_22","reciprocity","decay",340
"1634",8,1,6,1728,1,"md_as_22","reciprocity","decay",360
"1635",8,1,7,2769,1,"md_as_22","reciprocity","decay",180
"1636",8,1,9,2493,0,"md_as_22","reciprocity","decay",20
"1637",8,1,10,3059,1,"md_as_22","reciprocity","decay",360
"1638",8,1,11,3369,1,"md_as_22","reciprocity","decay",240
"1639",8,1,13,2759,1,"md_as_22","reciprocity","decay",120
"1640",8,1,16,1539,1,"md_as_22","reciprocity","decay",320
"1641",8,1,18,1737,1,"md_as_22","reciprocity","decay",320
"1642",8,1,19,3106,1,"md_as_22","reciprocity","decay",380
"1643",8,1,20,2576,1,"md_as_22","reciprocity","decay",360
"1644",8,1,21,1744,1,"md_as_22","reciprocity","decay",220
"1645",8,1,23,3687,1,"md_as_22","reciprocity","decay",220
"1646",8,1,24,2595,1,"md_as_22","reciprocity","decay",280
"1647",8,1,25,2820,1,"md_as_22","reciprocity","decay",280
"1648",8,1,26,3337,1,"md_as_22","reciprocity","decay",300
"1649",8,1,27,2616,1,"md_as_22","reciprocity","decay",380
"1650",8,1,28,3426,1,"md_as_22","reciprocity","decay",100
"1651",8,1,30,3065,0,"md_as_22","reciprocity","decay",160
"1652",8,1,31,3735,1,"md_as_22","reciprocity","decay",240
"1653",8,1,32,3012,1,"md_as_22","reciprocity","decay",340
"1654",8,1,33,2130,1,"md_as_22","reciprocity","decay",380
"1655",8,1,34,3122,0,"md_as_22","reciprocity","decay",380
"1656",8,2,1,2871,1,"md_as_22","reciprocity","decay",360
"1657",8,2,2,1750,1,"md_as_22","reciprocity","decay",20
"1658",8,2,3,1950,1,"md_as_22","reciprocity","decay",100
"1659",8,2,5,2587,1,"md_as_22","reciprocity","decay",340
"1660",8,2,6,1650,1,"md_as_22","reciprocity","decay",360
"1661",8,2,7,2944,1,"md_as_22","reciprocity","decay",180
"1662",8,2,8,2963,1,"md_as_22","reciprocity","decay",180
"1663",8,2,10,2377,1,"md_as_22","reciprocity","decay",360
"1664",8,2,11,1686,1,"md_as_22","reciprocity","decay",240
"1665",8,2,12,3296,1,"md_as_22","reciprocity","decay",60
"1666",8,2,13,2248,1,"md_as_22","reciprocity","decay",120
"1667",8,2,14,2723,1,"md_as_22","reciprocity","decay",160
"1668",8,2,15,2023,1,"md_as_22","reciprocity","decay",40
"1669",8,2,16,1549,1,"md_as_22","reciprocity","decay",320
"1670",8,2,18,2873,1,"md_as_22","reciprocity","decay",320
"1671",8,2,19,2777,1,"md_as_22","reciprocity","decay",380
"1672",8,2,20,1443,1,"md_as_22","reciprocity","decay",360
"1673",8,2,21,2849,1,"md_as_22","reciprocity","decay",220
"1674",8,2,22,3184,1,"md_as_22","reciprocity","decay",60
"1675",8,2,23,1248,1,"md_as_22","reciprocity","decay",220
"1676",8,2,24,2412,1,"md_as_22","reciprocity","decay",280
"1677",8,2,25,2357,1,"md_as_22","reciprocity","decay",280
"1678",8,2,27,1896,1,"md_as_22","reciprocity","decay",380
"1679",8,2,28,2631,1,"md_as_22","reciprocity","decay",100
"1680",8,2,29,3287,1,"md_as_22","reciprocity","decay",300
"1681",8,2,31,1503,1,"md_as_22","reciprocity","decay",240
"1682",8,2,32,2012,1,"md_as_22","reciprocity","decay",340
"1683",8,2,33,1076,1,"md_as_22","reciprocity","decay",380
"1684",8,2,34,2177,0,"md_as_22","reciprocity","decay",380
"1685",8,3,1,2604,1,"md_as_22","reciprocity","decay",380
"1686",8,3,2,1767,1,"md_as_22","reciprocity","decay",100
"1687",8,3,3,2403,1,"md_as_22","reciprocity","decay",20
"1688",8,3,4,1961,1,"md_as_22","reciprocity","decay",360
"1689",8,3,5,3859,1,"md_as_22","reciprocity","decay",100
"1690",8,3,6,1849,1,"md_as_22","reciprocity","decay",360
"1691",8,3,7,2675,0,"md_as_22","reciprocity","decay",20
"1692",8,3,8,1976,1,"md_as_22","reciprocity","decay",160
"1693",8,3,9,2479,0,"md_as_22","reciprocity","decay",40
"1694",8,3,10,1988,1,"md_as_22","reciprocity","decay",360
"1695",8,3,11,3065,1,"md_as_22","reciprocity","decay",120
"1696",8,3,12,2772,0,"md_as_22","reciprocity","decay",60
"1697",8,3,13,3226,1,"md_as_22","reciprocity","decay",280
"1698",8,3,14,2355,1,"md_as_22","reciprocity","decay",160
"1699",8,3,15,1987,1,"md_as_22","reciprocity","decay",300
"1700",8,3,16,3114,0,"md_as_22","reciprocity","decay",60
"1701",8,3,18,1956,1,"md_as_22","reciprocity","decay",220
"1702",8,3,20,3477,1,"md_as_22","reciprocity","decay",40
"1703",8,3,21,3454,1,"md_as_22","reciprocity","decay",180
"1704",8,3,22,1157,1,"md_as_22","reciprocity","decay",280
"1705",8,3,23,1388,1,"md_as_22","reciprocity","decay",240
"1706",8,3,24,1226,1,"md_as_22","reciprocity","decay",220
"1707",8,3,25,2260,1,"md_as_22","reciprocity","decay",240
"1708",8,3,26,2573,1,"md_as_22","reciprocity","decay",380
